onset	duration	Pair	Choice	Response	RT	Feedback_Onset	Feedback_duration	Balance	RPE	Q_chosen	Q_notchosen	npair	Beta_Q	alpha_gain	alpha_loss
0.5338	0.9507	CD	C	Correct	0.941	2.2351	0.5171	-1	-0.8333	0.8333	0.6597	34	3.5205	0.0628	2e-04
4.07	0.7005	AB	A	Correct	0.696	5.5211	0.5171	1	0.0818	0.9182	0.6377	12	3.5205	0.0628	2e-04
8.1066	0.7172	CD	C	Correct	0.705	9.5744	0.5171	1	0.1668	0.8332	0.6597	34	3.5205	0.0628	2e-04
17.1305	0.9174	BA	A	Correct	0.9	18.7985	0.5171	1	0.0767	0.9233	0.6377	12	3.5205	0.0628	2e-04
25.1537	0.6672	FE	E	Correct	0.656	26.5715	0.5171	-1	-0.9	0.9	0.7543	56	3.5205	0.0628	2e-04
29.674	0.6839	DC	C	Correct	0.673	31.1085	0.5171	1	0.1564	0.8436	0.6597	34	3.5205	0.0628	2e-04
32.6931	0.9508	BA	A	Correct	0.946	34.3945	0.5171	1	0.0719	0.9281	0.6377	12	3.5205	0.0628	2e-04
36.713	0.6005	BA	A	Correct	0.595	38.0641	0.5171	1	0.0674	0.9326	0.6377	12	3.5205	0.0628	2e-04
44.2525	0.6672	AB	A	Correct	0.658	45.6703	0.5171	1	0.0631	0.9369	0.6377	12	3.5205	0.0628	2e-04
48.7728	1.0342	AB	A	Correct	1.03	50.5576	0.517	1	0.0592	0.9408	0.6377	12	3.5205	0.0628	2e-04
52.7927	1.0509	DC	C	Correct	1.039	54.5942	0.517	1	0.1466	0.8534	0.6597	34	3.5205	0.0628	2e-04
56.8126	1.1676	EF	E	Correct	1.161	58.7308	0.5171	1	0.1002	0.8998	0.7543	56	3.5205	0.0628	2e-04
64.8358	0.6672	AB	A	Correct	0.654	66.2536	0.5171	1	0.0555	0.9445	0.6377	12	3.5205	0.0628	2e-04
69.3561	0.9674	DC	C	Correct	0.956	71.0742	0.517	1	0.1374	0.8626	0.6597	34	3.5205	0.0628	2e-04
73.8764	0.5838	FE	E	Correct	0.568	75.2108	0.5171	1	0.0939	0.9061	0.7543	56	3.5205	0.0628	2e-04
76.8955	0.784	DC	D	Incorrect	0.771	78.4301	0.5171	1	0.3403	0.6597	0.8713	34	3.5205	0.0628	2e-04
80.9154	0.6172	BA	A	Correct	0.609	82.2832	0.5171	1	0.052	0.948	0.6377	12	3.5205	0.0628	2e-04
85.9362	0.7506	FE	E	Correct	0.734	87.4374	0.5171	-1	-0.912	0.912	0.7543	56	3.5205	0.0628	2e-04
88.4716	1.0174	BA	A	Correct	1.011	90.2397	0.517	-1	-0.9513	0.9513	0.6377	12	3.5205	0.0628	2e-04
93.9927	0.6338	BA	A	Correct	0.623	95.3771	0.5171	-1	-0.9511	0.9511	0.6377	12	3.5205	0.0628	2e-04
97.0118	0.9674	AB	A	Correct	0.96	98.7299	0.517	1	0.049	0.951	0.6377	12	3.5205	0.0628	2e-04
105.5354	0.7672	DC	C	Correct	0.763	107.0533	0.517	1	0.1287	0.8713	0.6811	34	3.5205	0.0628	2e-04
109.0549	0.6839	FE	E	Correct	0.68	110.4894	0.5171	1	0.0882	0.9118	0.7543	56	3.5205	0.0628	2e-04
112.5911	0.6839	AB	A	Correct	0.677	114.0256	0.517	1	0.046	0.954	0.6377	12	3.5205	0.0628	2e-04
121.615	0.8174	BA	A	Correct	0.799	123.1663	0.5171	1	0.0431	0.9569	0.6377	12	3.5205	0.0628	2e-04
125.635	1.668	BA	A	Correct	1.65	127.6032	0.5171	1	0.0404	0.9596	0.6377	12	3.5205	0.0628	2e-04
133.6748	1.1843	CD	D	Incorrect	1.181	135.1593	0.5171	-1	-0.6811	0.6811	0.8793	34	3.5205	0.0628	2e-04
137.1943	0.7173	FE	E	Correct	0.707	138.2118	0.5171	1	0.0826	0.9174	0.7543	56	3.5205	0.0628	2e-04
141.7146	1.201	FE	E	Correct	1.19	143.2158	0.5171	1	0.0774	0.9226	0.7543	56	3.5205	0.0628	2e-04
145.2341	2.6855	AB	A	Correct	2.677	148.2199	0.5171	1	0.0378	0.9622	0.6377	12	3.5205	0.0628	2e-04
148.7703	0.9008	BA	B	Incorrect	0.89	149.9713	0.5171	-1	-0.6377	0.6377	0.9645	12	3.5205	0.0628	2e-04
154.2915	0.5838	BA	A	Correct	0.581	155.1755	0.5171	-1	-0.9645	0.9645	0.6376	12	3.5205	0.0628	2e-04
157.811	1.2176	FE	E	Correct	1.21	159.3289	0.5171	1	0.0726	0.9274	0.7543	56	3.5205	0.0628	2e-04
161.8309	0.7339	FE	F	Incorrect	0.726	162.8651	0.5171	-1	-0.7543	0.7543	0.932	56	3.5205	0.0628	2e-04
165.3504	2.3853	EF	E	Correct	2.373	168.0359	0.5171	1	0.068	0.932	0.7541	56	3.5205	0.0628	2e-04
169.3703	1.668	EF	E	Correct	1.651	171.3386	0.5171	1	0.0638	0.9362	0.7541	56	3.5205	0.0628	2e-04
172.9065	1.3011	CD	D	Incorrect	1.292	174.5078	0.5171	-1	-0.681	0.681	0.8793	34	3.5205	0.0628	2e-04
177.9273	0.5337	EF	E	Correct	0.518	178.7613	0.517	-1	-0.9402	0.9402	0.7541	56	3.5205	0.0628	2e-04
182.4476	1.9516	BA	B	Incorrect	1.945	184.6994	0.2669	-1	-0.6376	0.6376	0.9644	12	3.5205	0.0628	2e-04
190.4707	1.3678	CD	D	Incorrect	1.356	192.1387	0.5171	1	0.3191	0.6809	0.8793	34	3.5205	0.0628	2e-04
193.0061	2.869	FE	F	Incorrect	2.867	196.1753	0.5171	-1	-0.7541	0.7541	0.9401	56	3.5205	0.0628	2e-04
198.5106	2.5187	FE	n/a	omission	0	201.3295	0.5171	0	0	0	0	0	3.5205	0.0628	2e-04
204.5321	0.0167	AB	A	Correct	0.004	204.849	0.5171	1	0.0356	0.9644	0.6375	12	3.5205	0.0628	2e-04
213.0557	0.6171	DC	D	Incorrect	0.614	213.9731	0.5171	-1	-0.7009	0.7009	0.8793	34	3.5205	0.0628	2e-04
217.0756	0.7172	AB	B	Incorrect	0.71	218.0931	0.5171	1	0.3625	0.6375	0.9666	12	3.5205	0.0628	2e-04
221.0955	1.8181	DC	D	Incorrect	1.804	223.2139	0.4003	1	0.2992	0.7008	0.8793	34	3.5205	0.0628	2e-04
224.615	0.784	AB	A	Correct	0.781	225.6992	0.5171	1	0.0334	0.9666	0.6603	12	3.5205	0.0628	2e-04
227.6508	0.7506	AB	A	Correct	0.745	228.7017	0.517	-1	-0.9687	0.9687	0.6603	12	3.5205	0.0628	2e-04
233.1719	1.201	CD	D	Incorrect	1.192	234.6731	0.5171	1	0.2804	0.7196	0.8793	34	3.5205	0.0628	2e-04
236.191	3.5029	AB	n/a	omission	0	239.9941	0.5171	0	0	0	0	0	3.5205	0.0628	2e-04
243.2134	1.0675	AB	A	Correct	1.065	244.5812	0.5171	1	0.0315	0.9685	0.6603	12	3.5205	0.0628	2e-04
247.25	0.5004	AB	A	Correct	0.497	248.0506	0.5171	-1	-0.9705	0.9705	0.6603	12	3.5205	0.0628	2e-04
252.7711	0.4838	CD	C	Correct	0.47	253.5551	0.5171	1	0.1207	0.8793	0.7371	34	3.5205	0.0628	2e-04
259.7935	0.5838	BA	B	Incorrect	0.573	260.6775	0.5171	-1	-0.6603	0.6603	0.9703	12	3.5205	0.0628	2e-04
263.8134	0.6005	BA	A	Correct	0.585	264.7141	0.5171	1	0.0297	0.9703	0.6601	12	3.5205	0.0628	2e-04
267.3496	0.5671	BA	A	Correct	0.565	268.217	0.517	1	0.0278	0.9722	0.6601	12	3.5205	0.0628	2e-04
272.3536	0.7673	AB	B	Incorrect	0.75	273.4212	0.517	-1	-0.6601	0.6601	0.9739	12	3.5205	0.0628	2e-04
276.3736	2.4686	EF	E	Correct	2.458	279.1425	0.2502	1	0.0599	0.9401	0.754	56	3.5205	0.0628	2e-04
280.3935	0.834	EF	E	Correct	0.82	281.5277	0.5171	1	0.0562	0.9438	0.754	56	3.5205	0.0628	2e-04
288.4166	0.7506	DC	D	Incorrect	0.74	289.4675	0.5171	-1	-0.7371	0.7371	0.8869	34	3.5205	0.0628	2e-04
291.4524	0.9007	CD	C	Correct	0.896	292.6534	0.5171	1	0.1131	0.8869	0.737	34	3.5205	0.0628	2e-04
295.489	0.7006	DC	C	Correct	0.695	296.4898	0.5171	1	0.106	0.894	0.737	34	3.5205	0.0628	2e-04
299.5256	3.9866	BA	n/a	omission	0	303.8124	0.5171	0	0	0	0	0	3.5205	0.0628	2e-04
309.0166	0.9341	CD	C	Correct	0.922	310.251	0.517	1	0.0993	0.9007	0.737	34	3.5205	0.0628	2e-04
313.0365	1.2511	BA	B	Incorrect	1.247	314.5878	0.5171	-1	-0.66	0.66	0.9739	12	3.5205	0.0628	2e-04
320.0589	0.9007	EF	E	Correct	0.898	321.2599	0.517	1	0.0526	0.9474	0.754	56	3.5205	0.0628	2e-04
323.5951	1.0175	CD	C	Correct	1.008	324.9128	0.5171	1	0.0931	0.9069	0.737	34	3.5205	0.0628	2e-04
329.1162	1.1009	CD	C	Correct	1.095	330.5173	0.5171	1	0.0873	0.9127	0.737	34	3.5205	0.0628	2e-04
332.6357	1.3678	AB	B	Incorrect	1.359	334.3037	0.5171	-1	-0.6599	0.6599	0.9739	12	3.5205	0.0628	2e-04
336.1552	1.3178	DC	C	Correct	1.299	337.7565	0.5171	-1	-0.9182	0.9182	0.737	34	3.5205	0.0628	2e-04
340.1918	0.6839	EF	E	Correct	0.666	341.176	0.517	1	0.0493	0.9507	0.754	56	3.5205	0.0628	2e-04
344.2118	0.6505	DC	D	Incorrect	0.644	345.1625	0.5171	1	0.263	0.737	0.9181	34	3.5205	0.0628	2e-04
348.7321	0.8173	FE	E	Correct	0.814	349.8497	0.517	1	0.0462	0.9538	0.754	56	3.5205	0.0628	2e-04
351.7679	1.0675	BA	A	Correct	1.05	353.1356	0.5171	1	0.0261	0.9739	0.6598	12	3.5205	0.0628	2e-04
356.7886	1.4011	DC	C	Correct	1.397	358.49	0.5171	1	0.0819	0.9181	0.7535	34	3.5205	0.0628	2e-04
359.8244	1.4178	FE	F	Incorrect	1.406	361.5424	0.5171	1	0.246	0.754	0.9567	56	3.5205	0.0628	2e-04
369.3488	0.7172	CD	C	Correct	0.714	370.3662	0.5171	1	0.0768	0.9232	0.7535	34	3.5205	0.0628	2e-04
372.8683	3.0024	BA	n/a	omission	0	376.1709	0.5171	0	0	0	0	0	3.5205	0.0628	2e-04
378.8898	0.9508	CD	C	Correct	0.94	380.1408	0.5171	1	0.072	0.928	0.7535	34	3.5205	0.0628	2e-04
387.4134	1.3344	EF	F	Incorrect	1.33	389.048	0.5171	-1	-0.7694	0.7694	0.9567	56	3.5205	0.0628	2e-04
392.4341	1.301	BA	A	Correct	1.293	394.0354	0.5171	1	0.0244	0.9756	0.6598	12	3.5205	0.0628	2e-04
394.9695	1.3177	FE	F	Incorrect	1.305	396.5875	0.517	1	0.2307	0.7693	0.9567	56	3.5205	0.0628	2e-04
400.4906	0.8007	DC	D	Incorrect	0.785	401.5915	0.5171	-1	-0.7535	0.7535	0.9325	34	3.5205	0.0628	2e-04
403.5097	0.8507	AB	A	Correct	0.838	404.6607	0.517	1	0.0229	0.9771	0.6598	12	3.5205	0.0628	2e-04
408.5304	0.9341	AB	A	Correct	0.923	409.7648	0.5171	1	0.0214	0.9786	0.6598	12	3.5205	0.0628	2e-04
411.0658	1.3678	CD	D	Incorrect	1.349	412.7338	0.5171	-1	-0.7534	0.7534	0.9325	34	3.5205	0.0628	2e-04
416.587	2.5187	BA	n/a	omission	0	419.4059	0.5171	0	0	0	0	0	3.5205	0.0628	2e-04
422.1081	1.1676	BA	A	Correct	1.159	423.5759	0.5171	1	0.0201	0.9799	0.6598	12	3.5205	0.0628	2e-04
427.1288	0.8507	DC	C	Correct	0.847	428.2798	0.517	-1	-0.9325	0.9325	0.7533	34	3.5205	0.0628	2e-04
430.6483	1.4012	CD	C	Correct	1.383	432.3497	0.5171	-1	-0.9324	0.9324	0.7533	34	3.5205	0.0628	2e-04
434.1845	1.3011	DC	C	Correct	1.288	435.7858	0.5171	1	0.0678	0.9322	0.7533	34	3.5205	0.0628	2e-04
438.2044	2.7856	EF	E	Correct	2.783	441.2903	0.4337	1	0.0433	0.9567	0.7838	56	3.5205	0.0628	2e-04
442.2244	0.9341	EF	F	Incorrect	0.931	443.4587	0.5171	1	0.2162	0.7838	0.9594	56	3.5205	0.0628	2e-04
446.2443	1.1843	DC	C	Correct	1.177	447.7288	0.5171	1	0.0635	0.9365	0.7533	34	3.5205	0.0628	2e-04
449.7805	0.8507	EF	E	Correct	0.833	450.9314	0.5171	1	0.0406	0.9594	0.7974	56	3.5205	0.0628	2e-04
454.8012	0.9174	FE	F	Incorrect	0.899	456.0022	0.5171	1	0.2026	0.7974	0.9619	56	3.5205	0.0628	2e-04
458.3374	0.7172	CD	C	Correct	0.707	459.3549	0.5171	1	0.0595	0.9405	0.7533	34	3.5205	0.0628	2e-04
462.8577	1.8515	FE	E	Correct	1.835	465.0095	0.517	-1	-0.9619	0.9619	0.8101	56	3.5205	0.0628	2e-04
467.378	0.7173	CD	C	Correct	0.702	468.3955	0.5171	-1	-0.9442	0.9442	0.7533	34	3.5205	0.0628	2e-04
470.8976	0.9174	BA	B	Incorrect	0.912	472.1152	0.5171	-1	-0.6598	0.6598	0.9812	12	3.5205	0.0628	2e-04
474.9175	0.9007	AB	B	Incorrect	0.889	476.1185	0.517	1	0.3403	0.6597	0.9812	12	3.5205	0.0628	2e-04
477.9533	1.4511	DC	D	Incorrect	1.447	479.7047	0.5171	-1	-0.7533	0.7533	0.944	34	3.5205	0.0628	2e-04
483.4744	0.6505	EF	F	Incorrect	0.643	484.4252	0.5171	-1	-0.8101	0.8101	0.9618	56	3.5205	0.0628	2e-04
486.4935	0.7673	BA	A	Correct	0.764	487.561	0.5171	1	0.0188	0.9812	0.681	12	3.5205	0.0628	2e-04
491.0138	0.6839	CD	C	Correct	0.671	491.998	0.517	-1	-0.944	0.944	0.7531	34	3.5205	0.0628	2e-04
494.0496	0.7506	CD	C	Correct	0.735	495.1005	0.5171	1	0.0561	0.9439	0.7531	34	3.5205	0.0628	2e-04
502.5732	0.9007	CD	C	Correct	0.892	503.7741	0.5171	1	0.0526	0.9474	0.7531	34	3.5205	0.0628	2e-04
511.5971	0.5672	DC	C	Correct	0.551	512.4645	0.5171	1	0.0493	0.9507	0.7531	34	3.5205	0.0628	2e-04
514.1325	3.9866	EF	n/a	omission	0	518.4193	0.5171	0	0	0	0	0	3.5205	0.0628	2e-04
522.6227	0.5338	BA	B	Incorrect	0.525	523.4567	0.5171	-1	-0.681	0.681	0.9823	12	3.5205	0.0628	2e-04
526.6427	0.6171	FE	E	Correct	0.605	527.5601	0.517	1	0.0382	0.9618	0.8099	56	3.5205	0.0628	2e-04
531.163	0.8006	CD	C	Correct	0.791	532.2639	0.517	1	0.0462	0.9538	0.7531	34	3.5205	0.0628	2e-04
534.6825	1.0008	DC	C	Correct	0.986	535.9835	0.5171	-1	-0.9567	0.9567	0.7531	34	3.5205	0.0628	2e-04
538.2187	1.668	AB	A	Correct	1.659	540.1869	0.5171	1	0.0177	0.9823	0.6809	12	3.5205	0.0628	2e-04
542.2553	1.4178	AB	A	Correct	1.409	543.9733	0.5171	1	0.0166	0.9834	0.6809	12	3.5205	0.0628	2e-04
547.276	3.0024	DC	n/a	omission	0	550.5787	0.5171	0	0	0	0	0	3.5205	0.0628	2e-04
553.2975	0.6672	CD	C	Correct	0.651	554.265	0.5171	1	0.0435	0.9565	0.7531	34	3.5205	0.0628	2e-04
558.8187	1.1342	DC	C	Correct	1.117	560.2532	0.5171	1	0.0407	0.9593	0.7531	34	3.5205	0.0628	2e-04
562.8386	2.502	EF	n/a	omission	0	565.6409	0.517	0	0	0	0	0	3.5205	0.0628	2e-04
568.343	0.734	AB	B	Incorrect	0.721	569.3772	0.5171	1	0.3191	0.6809	0.9845	12	3.5205	0.0628	2e-04
571.8792	0.9174	DC	D	Incorrect	0.902	573.0969	0.5171	1	0.2469	0.7531	0.9618	34	3.5205	0.0628	2e-04
576.9	1.3511	EF	E	Correct	1.337	578.5513	0.5171	-1	-0.9642	0.9642	0.8099	56	3.5205	0.0628	2e-04
581.4203	0.9508	EF	E	Correct	0.943	582.6713	0.5171	1	0.036	0.964	0.8099	56	3.5205	0.0628	2e-04
584.9398	0.8173	CD	C	Correct	0.802	586.0574	0.5171	1	0.0382	0.9618	0.7686	34	3.5205	0.0628	2e-04
588.9597	2.035	CD	D	Incorrect	2.032	591.2949	0.5171	-1	-0.7686	0.7686	0.9642	34	3.5205	0.0628	2e-04
593.48	0.8507	DC	D	Incorrect	0.833	594.631	0.5171	1	0.2315	0.7685	0.9642	34	3.5205	0.0628	2e-04
596.9996	3.0191	CD	n/a	omission	0	600.3189	0.5171	0	0	0	0	0	3.5205	0.0628	2e-04
604.5223	0.8507	CD	C	Correct	0.832	605.6732	0.5171	-1	-0.9642	0.9642	0.783	34	3.5205	0.0628	2e-04
607.5581	1.0008	DC	D	Incorrect	0.985	608.8591	0.5171	-1	-0.783	0.783	0.964	34	3.5205	0.0628	2e-04
611.578	3.5028	EF	n/a	omission	0	615.3811	0.5171	0	0	0	0	0	3.5205	0.0628	2e-04
619.5845	0.5838	AB	A	Correct	0.57	620.4685	0.5171	1	0.0155	0.9845	0.701	12	3.5205	0.0628	2e-04
623.6044	0.8173	BA	B	Incorrect	0.814	624.722	0.5171	-1	-0.701	0.701	0.9855	12	3.5205	0.0628	2e-04
627.6243	0.734	EF	E	Correct	0.726	628.6585	0.5171	1	0.0337	0.9663	0.8099	56	3.5205	0.0628	2e-04
630.6601	0.7006	BA	B	Incorrect	0.692	631.6609	0.5171	-1	-0.7008	0.7008	0.9855	12	3.5205	0.0628	2e-04
634.6967	0.9341	DC	D	Incorrect	0.923	635.931	0.5171	1	0.2171	0.7829	0.964	34	3.5205	0.0628	2e-04
638.7333	0.7173	CD	C	Correct	0.699	639.7508	0.5171	-1	-0.964	0.964	0.7965	34	3.5205	0.0628	2e-04
643.2536	1.1676	CD	C	Correct	1.15	644.7215	0.5171	-1	-0.9639	0.9639	0.7965	34	3.5205	0.0628	2e-04
647.2736	1.0008	BA	A	Correct	0.987	648.5746	0.5171	1	0.0145	0.9855	0.7007	12	3.5205	0.0628	2e-04
655.2967	0.367	BA	B	Incorrect	0.363	655.9639	0.5171	-1	-0.7007	0.7007	0.9864	12	3.5205	0.0628	2e-04
658.8329	1.5012	FE	F	Incorrect	1.486	660.6344	0.517	1	0.1901	0.8099	0.9684	56	3.5205	0.0628	2e-04
663.8536	1.4846	BA	B	Incorrect	1.47	665.6384	0.5171	-1	-0.7006	0.7006	0.9864	12	3.5205	0.0628	2e-04
668.374	1.2009	EF	E	Correct	1.198	669.8752	0.5171	1	0.0316	0.9684	0.8219	56	3.5205	0.0628	2e-04
671.3931	1.718	EF	E	Correct	1.706	673.4114	0.517	1	0.0296	0.9704	0.8219	56	3.5205	0.0628	2e-04
