onset	duration	Pair	Choice	Response	RT	Feedback_Onset	Feedback_duration	Balance	RPE	Q_chosen	Q_notchosen	npair	Beta_Q	alpha_gain	alpha_loss
0.5504	1.1176	CD	C	Correct	1.114	2.4147	0.5043	-1	-0.5	0.5	0.5	34	9.7738	0.1189	0.0491
5.5712	1.5345	DC	D	Incorrect	1.53	7.406	0.5171	-1	-0.5	0.5	0.4754	34	9.7738	0.1189	0.0491
13.5943	1.7014	AB	B	Incorrect	1.698	15.596	0.5171	-1	-0.5	0.5	0.5	12	9.7738	0.1189	0.0491
17.6143	1.7681	DC	C	Correct	1.75	19.6826	0.4671	1	0.5246	0.4754	0.4754	34	9.7738	0.1189	0.0491
21.1505	1.4178	EF	E	Correct	1.412	22.8685	0.5171	1	0.5	0.5	0.5	56	9.7738	0.1189	0.0491
25.1704	1.6013	AB	A	Correct	1.587	27.072	0.5171	1	0.5	0.5	0.4754	12	9.7738	0.1189	0.0491
28.6899	1.5013	CD	C	Correct	1.486	30.4914	0.5171	1	0.4622	0.5378	0.4754	34	9.7738	0.1189	0.0491
33.7107	1.3177	CD	C	Correct	1.301	35.3287	0.5171	1	0.4072	0.5928	0.4754	34	9.7738	0.1189	0.0491
36.2461	1.8848	EF	F	Incorrect	1.876	38.4312	0.5171	1	0.5	0.5	0.5594	56	9.7738	0.1189	0.0491
41.7672	1.1843	BA	B	Incorrect	1.181	43.2518	0.5171	-1	-0.4754	0.4754	0.5594	12	9.7738	0.1189	0.0491
44.3026	1.4345	DC	C	Correct	1.419	46.0374	0.5171	-1	-0.6412	0.6412	0.4754	34	9.7738	0.1189	0.0491
48.823	1.4178	BA	B	Incorrect	1.404	50.541	0.5171	-1	-0.4521	0.4521	0.5594	12	9.7738	0.1189	0.0491
52.3592	1.6346	CD	C	Correct	1.625	54.2941	0.5171	1	0.3903	0.6097	0.4754	34	9.7738	0.1189	0.0491
57.8803	1.1843	DC	C	Correct	1.181	59.3649	0.5171	1	0.3439	0.6561	0.4754	34	9.7738	0.1189	0.0491
60.4157	1.2677	DC	C	Correct	1.25	61.9837	0.517	1	0.303	0.697	0.4754	34	9.7738	0.1189	0.0491
65.9369	1.1009	CD	C	Correct	1.084	67.338	0.5171	1	0.267	0.733	0.4754	34	9.7738	0.1189	0.0491
68.956	1.5012	EF	E	Correct	1.493	70.7575	0.517	1	0.4406	0.5594	0.5594	56	9.7738	0.1189	0.0491
73.9767	1.3345	BA	A	Correct	1.323	75.6114	0.5171	-1	-0.5594	0.5594	0.4299	12	9.7738	0.1189	0.0491
76.5121	1.1009	BA	A	Correct	1.084	77.9133	0.517	1	0.468	0.532	0.4299	12	9.7738	0.1189	0.0491
80.5487	1.4345	AB	A	Correct	1.417	82.2835	0.5171	1	0.4124	0.5876	0.4299	12	9.7738	0.1189	0.0491
85.0691	1.668	BA	A	Correct	1.657	87.0373	0.5171	1	0.3634	0.6366	0.4299	12	9.7738	0.1189	0.0491
89.089	1.2677	DC	D	Incorrect	1.259	90.657	0.517	1	0.5246	0.4754	0.7647	34	9.7738	0.1189	0.0491
94.1098	1.1175	AB	A	Correct	1.111	95.5276	0.5171	1	0.3202	0.6798	0.4299	12	9.7738	0.1189	0.0491
96.6451	1.6681	EF	E	Correct	1.664	98.6134	0.5171	-1	-0.6118	0.6118	0.5594	56	9.7738	0.1189	0.0491
101.1655	0.8507	CD	C	Correct	0.845	102.3164	0.5171	1	0.2353	0.7647	0.5378	34	9.7738	0.1189	0.0491
106.1862	1.0175	DC	C	Correct	1.007	107.504	0.5171	1	0.2073	0.7927	0.5378	34	9.7738	0.1189	0.0491
110.2062	1.4011	CD	C	Correct	1.389	111.9075	0.5171	1	0.1826	0.8174	0.5378	34	9.7738	0.1189	0.0491
117.7289	1.5513	DC	C	Correct	1.538	119.5804	0.5171	-1	-0.8391	0.8391	0.5378	34	9.7738	0.1189	0.0491
126.2525	0.9675	FE	E	Correct	0.958	127.5202	0.5171	1	0.4182	0.5818	0.5594	56	9.7738	0.1189	0.0491
130.2725	1.3677	FE	E	Correct	1.363	131.9405	0.5171	-1	-0.6315	0.6315	0.5594	56	9.7738	0.1189	0.0491
132.8079	1.0508	EF	E	Correct	1.033	134.159	0.517	-1	-0.6005	0.6005	0.5594	56	9.7738	0.1189	0.0491
136.8445	1.2009	AB	A	Correct	1.187	138.3457	0.5171	1	0.2821	0.7179	0.4299	12	9.7738	0.1189	0.0491
146.3689	0.9007	EF	F	Incorrect	0.894	147.5698	0.5171	-1	-0.5594	0.5594	0.571	56	9.7738	0.1189	0.0491
149.8884	1.0008	CD	C	Correct	0.984	151.1895	0.517	-1	-0.7979	0.7979	0.5378	34	9.7738	0.1189	0.0491
152.9242	1.0342	BA	A	Correct	1.02	154.2586	0.5171	1	0.2486	0.7514	0.4299	12	9.7738	0.1189	0.0491
161.4478	1.5012	BA	A	Correct	1.489	163.2493	0.517	1	0.219	0.781	0.4299	12	9.7738	0.1189	0.0491
165.4677	1.1009	FE	F	Incorrect	1.094	166.8689	0.517	1	0.468	0.532	0.571	56	9.7738	0.1189	0.0491
170.4885	0.8006	BA	A	Correct	0.798	171.5894	0.517	1	0.193	0.807	0.4299	12	9.7738	0.1189	0.0491
174.5084	0.8507	BA	A	Correct	0.84	175.6593	0.5171	1	0.17	0.83	0.4299	12	9.7738	0.1189	0.0491
177.0438	1.668	FE	F	Incorrect	1.652	179.0121	0.517	1	0.4124	0.5876	0.571	56	9.7738	0.1189	0.0491
181.5641	1.1343	BA	A	Correct	1.129	182.9986	0.5171	-1	-0.8502	0.8502	0.4299	12	9.7738	0.1189	0.0491
185.5841	1.1843	DC	C	Correct	1.175	187.0686	0.5171	-1	-0.7586	0.7586	0.5378	34	9.7738	0.1189	0.0491
190.6048	1.0008	DC	C	Correct	0.985	191.9059	0.517	1	0.2786	0.7214	0.5378	34	9.7738	0.1189	0.0491
194.1243	1.5513	EF	F	Incorrect	1.542	195.9758	0.5171	1	0.3634	0.6366	0.571	56	9.7738	0.1189	0.0491
198.1443	1.3677	FE	F	Incorrect	1.35	199.8123	0.5171	-1	-0.6798	0.6798	0.571	56	9.7738	0.1189	0.0491
202.1642	0.9174	DC	C	Correct	0.907	203.3819	0.517	-1	-0.7545	0.7545	0.5378	34	9.7738	0.1189	0.0491
206.1841	1.1676	AB	A	Correct	1.152	207.652	0.5171	1	0.1916	0.8084	0.4299	12	9.7738	0.1189	0.0491
210.2041	1.6179	FE	E	Correct	1.612	212.1223	0.5171	1	0.429	0.571	0.6464	56	9.7738	0.1189	0.0491
213.2399	1.1843	DC	C	Correct	1.182	214.7244	0.5171	1	0.2826	0.7174	0.5378	34	9.7738	0.1189	0.0491
217.7602	1.618	FE	F	Incorrect	1.615	219.6784	0.5171	1	0.3536	0.6464	0.622	56	9.7738	0.1189	0.0491
222.7809	1.2511	BA	A	Correct	1.247	224.3322	0.5171	1	0.1688	0.8312	0.4299	12	9.7738	0.1189	0.0491
225.3163	1.4179	BA	A	Correct	1.41	227.0344	0.5171	1	0.1487	0.8513	0.4299	12	9.7738	0.1189	0.0491
229.3529	1.5847	FE	F	Incorrect	1.574	231.2378	0.5171	1	0.3115	0.6885	0.622	56	9.7738	0.1189	0.0491
233.8733	1.2844	DC	C	Correct	1.275	235.4579	0.5171	1	0.249	0.751	0.5378	34	9.7738	0.1189	0.0491
242.8973	0.8674	BA	A	Correct	0.852	244.0649	0.5171	1	0.131	0.869	0.4299	12	9.7738	0.1189	0.0491
246.4168	1.0175	EF	F	Incorrect	1.006	247.7345	0.5171	-1	-0.7255	0.7255	0.622	56	9.7738	0.1189	0.0491
249.9363	1.1676	AB	A	Correct	1.154	251.4042	0.5171	-1	-0.8845	0.8845	0.4299	12	9.7738	0.1189	0.0491
253.9563	1.0175	FE	F	Incorrect	1	255.274	0.5171	-1	-0.6899	0.6899	0.622	56	9.7738	0.1189	0.0491
257.4925	1.2677	EF	E	Correct	1.258	259.0604	0.5171	-1	-0.622	0.622	0.656	56	9.7738	0.1189	0.0491
261.5291	1.0175	FE	F	Incorrect	1.006	262.8468	0.5171	1	0.344	0.656	0.5914	56	9.7738	0.1189	0.0491
266.0494	1.0008	DC	C	Correct	0.994	267.3505	0.5171	-1	-0.7806	0.7806	0.5378	34	9.7738	0.1189	0.0491
269.5856	1.5346	FE	F	Incorrect	1.52	271.4205	0.517	1	0.3031	0.6969	0.5914	56	9.7738	0.1189	0.0491
273.6222	1.0676	CD	C	Correct	1.063	274.99	0.5171	1	0.2577	0.7423	0.5378	34	9.7738	0.1189	0.0491
277.6589	1.0842	BA	A	Correct	1.074	279.0433	0.5171	1	0.1589	0.8411	0.4299	12	9.7738	0.1189	0.0491
287.1833	1.1008	CD	C	Correct	1.083	288.5844	0.5171	1	0.2271	0.7729	0.5378	34	9.7738	0.1189	0.0491
291.2032	1.0842	CD	C	Correct	1.075	292.5876	0.5171	1	0.2001	0.7999	0.5378	34	9.7738	0.1189	0.0491
295.2231	0.9675	CD	C	Correct	0.958	296.4908	0.5171	1	0.1763	0.8237	0.5378	34	9.7738	0.1189	0.0491
301.7618	1.0842	BA	A	Correct	1.074	303.1462	0.5171	-1	-0.86	0.86	0.4299	12	9.7738	0.1189	0.0491
305.7984	1.0675	FE	F	Incorrect	1.051	307.1661	0.5171	-1	-0.7329	0.7329	0.5914	56	9.7738	0.1189	0.0491
309.835	1.3177	EF	F	Incorrect	1.314	311.453	0.5171	1	0.3031	0.6969	0.5914	56	9.7738	0.1189	0.0491
315.3561	1.4179	DC	C	Correct	1.41	317.0742	0.5171	1	0.1553	0.8447	0.5378	34	9.7738	0.1189	0.0491
318.8757	1.8515	FE	E	Correct	1.833	321.0107	0.5171	1	0.4086	0.5914	0.7329	56	9.7738	0.1189	0.0491
322.4119	1.5012	DC	C	Correct	1.487	324.2133	0.5171	1	0.1369	0.8631	0.5378	34	9.7738	0.1189	0.0491
326.4318	0.9007	BA	A	Correct	0.892	327.6328	0.5171	1	0.1823	0.8177	0.4299	12	9.7738	0.1189	0.0491
331.4525	1.1677	DC	C	Correct	1.155	332.9204	0.5171	-1	-0.8794	0.8794	0.5378	34	9.7738	0.1189	0.0491
333.9879	1.0843	EF	E	Correct	1.081	335.3724	0.5171	1	0.36	0.64	0.7329	56	9.7738	0.1189	0.0491
338.0245	0.8174	EF	E	Correct	0.811	339.1421	0.5171	1	0.3172	0.6828	0.7329	56	9.7738	0.1189	0.0491
342.5449	1.618	AB	A	Correct	1.609	344.4631	0.5171	1	0.1606	0.8394	0.4299	12	9.7738	0.1189	0.0491
346.5648	1.1009	EF	E	Correct	1.086	347.966	0.517	1	0.2795	0.7205	0.7329	56	9.7738	0.1189	0.0491
354.6047	1.7347	EF	F	Incorrect	1.731	356.6397	0.5171	-1	-0.7329	0.7329	0.7537	56	9.7738	0.1189	0.0491
362.6279	0.8673	BA	A	Correct	0.86	363.7955	0.5171	1	0.1415	0.8585	0.4299	12	9.7738	0.1189	0.0491
371.1515	1.6179	CD	C	Correct	1.614	373.0697	0.5171	1	0.1638	0.8362	0.5378	34	9.7738	0.1189	0.0491
374.671	1.4345	BA	A	Correct	1.431	376.4057	0.5171	1	0.1247	0.8753	0.4299	12	9.7738	0.1189	0.0491
378.6909	1.2177	BA	A	Correct	1.204	380.2088	0.5171	1	0.1099	0.8901	0.4299	12	9.7738	0.1189	0.0491
382.2271	1.0509	FE	E	Correct	1.033	383.5782	0.5171	1	0.2463	0.7537	0.6969	56	9.7738	0.1189	0.0491
387.7483	1.4011	FE	E	Correct	1.398	389.4496	0.5171	1	0.217	0.783	0.6969	56	9.7738	0.1189	0.0491
390.7674	1.0508	FE	E	Correct	1.037	392.1185	0.5171	1	0.1912	0.8088	0.6969	56	9.7738	0.1189	0.0491
398.3068	1.1343	EF	E	Correct	1.125	399.7413	0.5171	1	0.1685	0.8315	0.6969	56	9.7738	0.1189	0.0491
403.3276	0.8674	EF	E	Correct	0.856	404.4952	0.5171	-1	-0.8516	0.8516	0.6969	56	9.7738	0.1189	0.0491
407.8479	1.2177	CD	C	Correct	1.209	409.3658	0.5171	1	0.1443	0.8557	0.5378	34	9.7738	0.1189	0.0491
415.3707	1.201	FE	E	Correct	1.186	416.8719	0.5171	-1	-0.8097	0.8097	0.6969	56	9.7738	0.1189	0.0491
418.8902	0.9508	AB	A	Correct	0.934	420.1412	0.5171	1	0.0968	0.9032	0.4299	12	9.7738	0.1189	0.0491
423.911	1.8348	CD	C	Correct	1.818	426.046	0.3837	-1	-0.8728	0.8728	0.5378	34	9.7738	0.1189	0.0491
426.9301	1.1509	BA	A	Correct	1.139	428.3813	0.5171	1	0.0853	0.9147	0.4299	12	9.7738	0.1189	0.0491
430.4663	1.8849	FE	F	Incorrect	1.881	432.6514	0.5171	-1	-0.6969	0.6969	0.77	56	9.7738	0.1189	0.0491
435.487	1.4345	AB	A	Correct	1.423	437.2218	0.5171	-1	-0.9248	0.9248	0.4299	12	9.7738	0.1189	0.0491
440.0074	1.4011	CD	C	Correct	1.388	441.7088	0.517	-1	-0.8299	0.8299	0.5378	34	9.7738	0.1189	0.0491
444.0273	1.0675	CD	C	Correct	1.064	445.3951	0.5171	1	0.2108	0.7892	0.5378	34	9.7738	0.1189	0.0491
448.0472	0.7673	CD	C	Correct	0.751	449.1148	0.5171	-1	-0.8142	0.8142	0.5378	34	9.7738	0.1189	0.0491
451.5668	1.3677	CD	D	Incorrect	1.357	453.2348	0.5171	-1	-0.5378	0.5378	0.7742	34	9.7738	0.1189	0.0491
456.0871	1.2343	FE	E	Correct	1.222	457.6217	0.5171	-1	-0.77	0.77	0.6627	56	9.7738	0.1189	0.0491
460.107	1.3678	EF	E	Correct	1.356	461.7751	0.517	1	0.2679	0.7321	0.6627	56	9.7738	0.1189	0.0491
463.1262	1.9682	BA	A	Correct	1.961	465.3947	0.5171	1	0.1206	0.8794	0.4299	12	9.7738	0.1189	0.0491
467.6465	1.1009	AB	A	Correct	1.082	469.031	0.517	1	0.1063	0.8937	0.4299	12	9.7738	0.1189	0.0491
472.1668	1.0509	BA	A	Correct	1.039	473.5179	0.5171	1	0.0936	0.9064	0.4299	12	9.7738	0.1189	0.0491
475.186	1.4511	DC	C	Correct	1.441	476.9374	0.5171	1	0.2258	0.7742	0.5114	34	9.7738	0.1189	0.0491
478.7222	1.0008	EF	E	Correct	0.996	480.0232	0.5171	1	0.236	0.764	0.6627	56	9.7738	0.1189	0.0491
483.2425	1.1676	BA	A	Correct	1.161	484.7104	0.517	-1	-0.9175	0.9175	0.4299	12	9.7738	0.1189	0.0491
486.7787	1.7681	AB	A	Correct	1.758	488.847	0.5171	1	0.1276	0.8724	0.4299	12	9.7738	0.1189	0.0491
492.2999	0.9507	CD	C	Correct	0.946	493.5509	0.5171	1	0.1989	0.8011	0.5114	34	9.7738	0.1189	0.0491
496.3198	1.1342	AB	A	Correct	1.122	497.7543	0.5171	-1	-0.8876	0.8876	0.4299	12	9.7738	0.1189	0.0491
499.3389	1.0675	DC	C	Correct	1.057	500.7067	0.5171	1	0.1753	0.8247	0.5114	34	9.7738	0.1189	0.0491
506.8784	1.5512	DC	C	Correct	1.535	508.7299	0.5171	1	0.1544	0.8456	0.5114	34	9.7738	0.1189	0.0491
512.3995	0.9508	DC	C	Correct	0.946	513.6505	0.5171	1	0.1361	0.8639	0.5114	34	9.7738	0.1189	0.0491
515.919	1.5346	FE	E	Correct	1.524	517.7539	0.517	-1	-0.792	0.792	0.6627	56	9.7738	0.1189	0.0491
519.4386	1.0008	FE	F	Incorrect	0.997	520.7396	0.5171	-1	-0.6627	0.6627	0.7531	56	9.7738	0.1189	0.0491
523.4585	1.5012	EF	E	Correct	1.497	525.26	0.517	-1	-0.7531	0.7531	0.6301	56	9.7738	0.1189	0.0491
527.9788	0.9508	BA	A	Correct	0.939	529.2298	0.5171	1	0.156	0.844	0.4299	12	9.7738	0.1189	0.0491
531.4984	0.8673	BA	A	Correct	0.851	532.666	0.5171	1	0.1375	0.8625	0.4299	12	9.7738	0.1189	0.0491
535.5183	1.2844	EF	E	Correct	1.269	537.1029	0.5171	1	0.2839	0.7161	0.6301	56	9.7738	0.1189	0.0491
539.0545	1.2176	FE	E	Correct	1.2	540.5724	0.5171	-1	-0.7499	0.7499	0.6301	56	9.7738	0.1189	0.0491
544.5756	1.9683	CD	C	Correct	1.957	546.8442	0.2502	1	0.1199	0.8801	0.5114	34	9.7738	0.1189	0.0491
548.0952	0.9341	DC	C	Correct	0.917	549.3295	0.5171	-1	-0.8944	0.8944	0.5114	34	9.7738	0.1189	0.0491
552.6155	0.8507	DC	C	Correct	0.832	553.7498	0.517	1	0.1496	0.8504	0.5114	34	9.7738	0.1189	0.0491
555.6513	1.8348	BA	A	Correct	1.822	557.7864	0.5171	-1	-0.8789	0.8789	0.4299	12	9.7738	0.1189	0.0491
560.672	1.1009	EF	E	Correct	1.088	562.0732	0.5171	1	0.287	0.713	0.6301	56	9.7738	0.1189	0.0491
563.2074	1.3011	AB	A	Correct	1.286	564.8087	0.5171	1	0.1643	0.8357	0.4299	12	9.7738	0.1189	0.0491
568.7286	1.4011	CD	C	Correct	1.395	570.43	0.5171	-1	-0.8682	0.8682	0.5114	34	9.7738	0.1189	0.0491
572.2481	1.985	AB	A	Correct	1.967	574.5333	0.5171	1	0.1448	0.8552	0.4299	12	9.7738	0.1189	0.0491
575.3006	2.6522	FE	F	Incorrect	2.635	578.253	0.5171	-1	-0.6301	0.6301	0.7471	56	9.7738	0.1189	0.0491
580.8217	1.3845	AB	A	Correct	1.37	582.5064	0.5171	1	0.1276	0.8724	0.4299	12	9.7738	0.1189	0.0491
583.8409	1.3344	EF	E	Correct	1.332	585.4755	0.5171	1	0.2529	0.7471	0.5992	56	9.7738	0.1189	0.0491
587.8608	1.5846	BA	A	Correct	1.581	589.7457	0.517	1	0.1124	0.8876	0.4299	12	9.7738	0.1189	0.0491
592.3811	1.6347	EF	E	Correct	1.626	594.316	0.5171	1	0.2228	0.7772	0.5992	56	9.7738	0.1189	0.0491
596.4011	0.8173	DC	C	Correct	0.799	597.5186	0.5171	-1	-0.8255	0.8255	0.5114	34	9.7738	0.1189	0.0491
600.421	0.9674	EF	E	Correct	0.951	601.6887	0.5171	-1	-0.8037	0.8037	0.5992	56	9.7738	0.1189	0.0491
603.4568	1.5513	AB	A	Correct	1.537	605.3083	0.5171	1	0.099	0.901	0.4299	12	9.7738	0.1189	0.0491
607.4934	1.1009	AB	A	Correct	1.088	608.8945	0.5171	1	0.0873	0.9127	0.4299	12	9.7738	0.1189	0.0491
616.017	1.1176	BA	A	Correct	1.108	617.4348	0.5171	1	0.0769	0.9231	0.4299	12	9.7738	0.1189	0.0491
619.5532	1.0342	EF	E	Correct	1.032	620.8876	0.5171	-1	-0.7642	0.7642	0.5992	56	9.7738	0.1189	0.0491
623.5898	1.1843	DC	C	Correct	1.17	625.0744	0.517	1	0.215	0.785	0.5114	34	9.7738	0.1189	0.0491
628.6106	1.2176	BA	A	Correct	1.212	630.1285	0.517	-1	-0.9323	0.9323	0.4299	12	9.7738	0.1189	0.0491
632.6305	1.1676	CD	C	Correct	1.15	634.0983	0.5171	-1	-0.8105	0.8105	0.5114	34	9.7738	0.1189	0.0491
635.6663	1.2844	DC	C	Correct	1.275	637.2509	0.5171	1	0.2293	0.7707	0.5114	34	9.7738	0.1189	0.0491
641.1874	1.3678	FE	E	Correct	1.358	642.8555	0.517	1	0.2733	0.7267	0.5992	56	9.7738	0.1189	0.0491
645.2074	1.2843	EF	E	Correct	1.271	646.792	0.5171	1	0.2408	0.7592	0.5992	56	9.7738	0.1189	0.0491
648.2265	1.6347	CD	C	Correct	1.617	650.1614	0.5171	1	0.202	0.798	0.5114	34	9.7738	0.1189	0.0491
653.2472	1.4846	CD	C	Correct	1.472	655.032	0.5171	1	0.178	0.822	0.5114	34	9.7738	0.1189	0.0491
655.7826	1.4012	AB	A	Correct	1.39	657.484	0.5171	1	0.1135	0.8865	0.4299	12	9.7738	0.1189	0.0491
