onset	duration	Pair	Response	RT	Cond	Q_choice	Q_notchosen	eQdiff	Rv_diff	Beta_Q	alpha_gain	alpha_loss
0.5337	1.5679	Af	Correct	1.552	wl.u	0.9994	0.9282	0.0712	40	3.6123	0.1958	2e-04
4.5537	1.4678	bF	inCorrect	1.453	ll	0.9267	0.9282	-0.0015	20	3.6123	0.1958	2e-04
8.0897	1.2677	dE	Correct	1.26	wl.u	0.9993	0.8634	0.1359	30	3.6123	0.1958	2e-04
12.1257	2.035	dA	Correct	2.019	wl.u	0.9994	0.8634	0.136	50	3.6123	0.1958	2e-04
16.1627	0.9507	Cd	Correct	0.937	wl.l	0.9995	0.8634	0.1361	40	3.6123	0.1958	2e-04
21.1837	0.9841	Fb	inCorrect	0.977	ll	0.9267	0.9282	-0.0015	20	3.6123	0.1958	2e-04
24.7027	1.6179	bA	inCorrect	1.605	wl.l	0.9267	0.9994	-0.0727	60	3.6123	0.1958	2e-04
28.7227	1.7681	Ab	Correct	1.749	wl.l	0.9994	0.9267	0.0727	60	3.6123	0.1958	2e-04
32.7597	0.9007	Fb	inCorrect	0.894	ll	0.9267	0.9282	-0.0015	20	3.6123	0.1958	2e-04
36.2957	1.2677	dC	Correct	1.263	wl.l	0.9995	0.8634	0.1361	40	3.6123	0.1958	2e-04
40.8157	0.7506	bC	Correct	0.736	wl.u	0.9995	0.9267	0.0728	50	3.6123	0.1958	2e-04
45.3357	1.8348	fA	Correct	1.821	wl.u	0.9994	0.9282	0.0712	40	3.6123	0.1958	2e-04
48.3717	1.0842	cA	inCorrect	1.072	ww	0.9995	0.9994	1e-04	10	3.6123	0.1958	2e-04
53.3927	1.0675	Ed	Correct	1.056	wl.u	0.9993	0.8634	0.1359	30	3.6123	0.1958	2e-04
56.4287	1.9515	Ad	inCorrect	1.939	wl.u	0.8634	0.9994	-0.136	50	3.6123	0.1958	2e-04
61.4487	0.8173	Ef	Correct	0.804	wl.l	0.9993	0.9282	0.0711	20	3.6123	0.1958	2e-04
65.4687	1.1342	Cb	Correct	1.124	wl.u	0.9995	0.9267	0.0728	50	3.6123	0.1958	2e-04
68.5047	1.9349	Ab	inCorrect	1.931	wl.l	0.9267	0.9994	-0.0727	60	3.6123	0.1958	2e-04
72.5407	1.6347	Af	Correct	1.63	wl.u	0.9994	0.9282	0.0712	40	3.6123	0.1958	2e-04
77.5617	2.2518	Ab	Correct	2.238	wl.l	0.9994	0.9267	0.0727	60	3.6123	0.1958	2e-04
80.5977	0.9174	Cd	Correct	0.911	wl.l	0.9995	0.8634	0.1361	40	3.6123	0.1958	2e-04
85.6187	1.2844	bE	Correct	1.278	wl.u	0.9993	0.9267	0.0726	40	3.6123	0.1958	2e-04
89.1377	1.3177	fE	Correct	1.31	wl.l	0.9993	0.9282	0.0711	20	3.6123	0.1958	2e-04
93.1577	0.9674	Ef	Correct	0.96	wl.l	0.9993	0.9282	0.0711	20	3.6123	0.1958	2e-04
97.1777	1.3511	dA	Correct	1.341	wl.u	0.9994	0.8634	0.136	50	3.6123	0.1958	2e-04
101.1977	0.7506	Eb	Correct	0.737	wl.u	0.9993	0.9267	0.0726	40	3.6123	0.1958	2e-04
105.7177	1.6346	Cb	Correct	1.626	wl.u	0.9995	0.9267	0.0728	50	3.6123	0.1958	2e-04
109.7377	1.6847	bC	Correct	1.666	wl.u	0.9995	0.9267	0.0728	50	3.6123	0.1958	2e-04
113.7747	1.2676	fC	Correct	1.259	wl.u	0.9995	0.9282	0.0713	30	3.6123	0.1958	2e-04
116.8097	2.0183	Cd	Correct	2.009	wl.l	0.9995	0.8634	0.1361	40	3.6123	0.1958	2e-04
121.8307	1.3011	eA	inCorrect	1.286	ww	0.9993	0.9994	-1e-04	20	3.6123	0.1958	2e-04
125.3507	1.4345	Ad	inCorrect	1.424	wl.u	0.8634	0.9994	-0.136	50	3.6123	0.1958	2e-04
129.8707	1.9182	dC	Correct	1.908	wl.l	0.9995	0.8634	0.1361	40	3.6123	0.1958	2e-04
132.9067	1.2844	cA	Correct	1.274	ww	0.9994	0.9995	-1e-04	10	3.6123	0.1958	2e-04
136.9427	1.3511	fC	Correct	1.336	wl.u	0.9995	0.9282	0.0713	30	3.6123	0.1958	2e-04
140.9797	1.0676	Ed	Correct	1.062	wl.u	0.9993	0.8634	0.1359	30	3.6123	0.1958	2e-04
145.9997	0.9508	fC	Correct	0.947	wl.u	0.9995	0.9282	0.0713	30	3.6123	0.1958	2e-04
149.5197	1.7181	bD	inCorrect	1.701	ll	0.9267	0.8634	0.0633	10	3.6123	0.1958	2e-04
153.0557	1.3678	Ce	inCorrect	1.357	ww	0.9993	0.9995	-2e-04	10	3.6123	0.1958	2e-04
157.5757	1.3845	fA	inCorrect	1.368	wl.u	0.9282	0.9994	-0.0712	40	3.6123	0.1958	2e-04
161.5957	1.9015	fA	inCorrect	1.886	wl.u	0.9282	0.9994	-0.0712	40	3.6123	0.1958	2e-04
170.1197	1.4345	Ad	Correct	1.426	wl.u	0.9994	0.8634	0.136	50	3.6123	0.1958	2e-04
174.1397	1.3178	Fd	Correct	1.314	ll	0.9282	0.8634	0.0648	10	3.6123	0.1958	2e-04
178.1597	0.8841	Ae	inCorrect	0.877	ww	0.9993	0.9994	-1e-04	20	3.6123	0.1958	2e-04
181.1947	1.0342	Ed	Correct	1.017	wl.u	0.9993	0.8634	0.1359	30	3.6123	0.1958	2e-04
189.7187	1.5346	bF	inCorrect	1.53	ll	0.9267	0.9282	-0.0015	20	3.6123	0.1958	2e-04
198.2417	1.3011	bD	inCorrect	1.287	ll	0.9267	0.8634	0.0633	10	3.6123	0.1958	2e-04
202.2617	1.8515	Db	inCorrect	1.834	ll	0.9267	0.8634	0.0633	10	3.6123	0.1958	2e-04
205.7817	1.5012	Ae	inCorrect	1.495	ww	0.9993	0.9994	-1e-04	20	3.6123	0.1958	2e-04
209.3177	1.0508	dA	Correct	1.036	wl.u	0.9994	0.8634	0.136	50	3.6123	0.1958	2e-04
213.8377	1.2176	Ac	inCorrect	1.201	ww	0.9995	0.9994	1e-04	10	3.6123	0.1958	2e-04
217.8577	1.4845	eC	Correct	1.482	ww	0.9995	0.9993	2e-04	10	3.6123	0.1958	2e-04
221.8777	1.2677	Ce	inCorrect	1.252	ww	0.9993	0.9995	-2e-04	10	3.6123	0.1958	2e-04
226.3977	1.5179	dE	Correct	1.514	wl.u	0.9993	0.8634	0.1359	30	3.6123	0.1958	2e-04
229.4337	1.9849	bF	Correct	1.971	ll	0.9282	0.9267	0.0015	20	3.6123	0.1958	2e-04
233.9547	1.6346	eC	inCorrect	1.63	ww	0.9993	0.9995	-2e-04	10	3.6123	0.1958	2e-04
237.9737	1.4178	cA	inCorrect	1.411	ww	0.9995	0.9994	1e-04	10	3.6123	0.1958	2e-04
242.4947	1.6179	bC	Correct	1.61	wl.u	0.9995	0.9267	0.0728	50	3.6123	0.1958	2e-04
245.5297	1.3678	bC	inCorrect	1.357	wl.u	0.9267	0.9995	-0.0728	50	3.6123	0.1958	2e-04
250.0507	1.5179	Fd	Correct	1.503	ll	0.9282	0.8634	0.0648	10	3.6123	0.1958	2e-04
258.5737	0.9174	Ae	inCorrect	0.913	ww	0.9993	0.9994	-1e-04	20	3.6123	0.1958	2e-04
262.0937	1.4512	Eb	Correct	1.448	wl.u	0.9993	0.9267	0.0726	40	3.6123	0.1958	2e-04
266.6137	2.1684	Af	Correct	2.165	wl.u	0.9994	0.9282	0.0712	40	3.6123	0.1958	2e-04
270.1337	2.035	Db	Correct	2.029	ll	0.8634	0.9267	-0.0633	10	3.6123	0.1958	2e-04
274.6537	0.9675	dF	inCorrect	0.95	ll	0.8634	0.9282	-0.0648	10	3.6123	0.1958	2e-04
278.1727	1.7848	fC	inCorrect	1.773	wl.u	0.9282	0.9995	-0.0713	30	3.6123	0.1958	2e-04
282.6937	1.3511	Cd	Correct	1.338	wl.l	0.9995	0.8634	0.1361	40	3.6123	0.1958	2e-04
286.7137	0.9007	Ac	inCorrect	0.89	ww	0.9995	0.9994	1e-04	10	3.6123	0.1958	2e-04
293.7527	1.1176	dF	Correct	1.111	ll	0.9282	0.8634	0.0648	10	3.6123	0.1958	2e-04
297.7887	1.1342	eA	inCorrect	1.131	ww	0.9993	0.9994	-1e-04	20	3.6123	0.1958	2e-04
301.8257	1.4511	bF	inCorrect	1.434	ll	0.9267	0.9282	-0.0015	20	3.6123	0.1958	2e-04
305.8617	1.3011	Db	inCorrect	1.29	ll	0.9267	0.8634	0.0633	10	3.6123	0.1958	2e-04
313.9017	1.201	fC	Correct	1.187	wl.u	0.9995	0.9282	0.0713	30	3.6123	0.1958	2e-04
318.9227	1.4679	Eb	Correct	1.457	wl.u	0.9993	0.9267	0.0726	40	3.6123	0.1958	2e-04
322.9427	1.6847	Cf	inCorrect	1.675	wl.u	0.9282	0.9995	-0.0713	30	3.6123	0.1958	2e-04
326.4617	1.9516	bF	inCorrect	1.947	ll	0.9267	0.9282	-0.0015	20	3.6123	0.1958	2e-04
329.9977	1.9349	dA	Correct	1.919	wl.u	0.9994	0.8634	0.136	50	3.6123	0.1958	2e-04
334.0347	1.6513	dE	Correct	1.634	wl.u	0.9993	0.8634	0.1359	30	3.6123	0.1958	2e-04
339.0557	1.1509	Cf	inCorrect	1.148	wl.u	0.9282	0.9995	-0.0713	30	3.6123	0.1958	2e-04
343.0757	1.4345	Ad	Correct	1.419	wl.u	0.9994	0.8634	0.136	50	3.6123	0.1958	2e-04
346.5947	1.8681	cA	Correct	1.856	ww	0.9994	0.9995	-1e-04	10	3.6123	0.1958	2e-04
350.6147	1.2343	Ad	Correct	1.231	wl.u	0.9994	0.8634	0.136	50	3.6123	0.1958	2e-04
354.6347	1.251	Cf	inCorrect	1.24	wl.u	0.9282	0.9995	-0.0713	30	3.6123	0.1958	2e-04
358.6547	1.5178	Cd	Correct	1.514	wl.l	0.9995	0.8634	0.1361	40	3.6123	0.1958	2e-04
362.6747	0.9007	Cd	Correct	0.891	wl.l	0.9995	0.8634	0.1361	40	3.6123	0.1958	2e-04
367.1947	1.2676	dC	Correct	1.264	wl.l	0.9995	0.8634	0.1361	40	3.6123	0.1958	2e-04
375.2177	1.9182	bA	inCorrect	1.906	wl.l	0.9267	0.9994	-0.0727	60	3.6123	0.1958	2e-04
378.7377	1.9182	bE	inCorrect	1.9	wl.u	0.9267	0.9993	-0.0726	40	3.6123	0.1958	2e-04
383.2577	2.085	Ac	inCorrect	2.073	ww	0.9995	0.9994	1e-04	10	3.6123	0.1958	2e-04
387.2777	1.7013	Db	inCorrect	1.686	ll	0.9267	0.8634	0.0633	10	3.6123	0.1958	2e-04
390.7967	1.4344	Ce	inCorrect	1.421	ww	0.9993	0.9995	-2e-04	10	3.6123	0.1958	2e-04
395.3177	1.6012	Cd	Correct	1.599	wl.l	0.9995	0.8634	0.1361	40	3.6123	0.1958	2e-04
398.8367	1.3178	Ef	Correct	1.311	wl.l	0.9993	0.9282	0.0711	20	3.6123	0.1958	2e-04
406.3757	1.1009	Fb	inCorrect	1.092	ll	0.9267	0.9282	-0.0015	20	3.6123	0.1958	2e-04
411.3967	1.3178	Ef	Correct	1.308	wl.l	0.9993	0.9282	0.0711	20	3.6123	0.1958	2e-04
414.9167	1.4679	Ad	Correct	1.453	wl.u	0.9994	0.8634	0.136	50	3.6123	0.1958	2e-04
419.4367	2.3686	Ac	inCorrect	2.364	ww	0.9995	0.9994	1e-04	10	3.6123	0.1958	2e-04
422.9557	2.502	bA	inCorrect	2.491	wl.l	0.9267	0.9994	-0.0727	60	3.6123	0.1958	2e-04
426.4927	1.2844	Db	inCorrect	1.27	ll	0.9267	0.8634	0.0633	10	3.6123	0.1958	2e-04
431.0127	1.4345	Eb	Correct	1.417	wl.u	0.9993	0.9267	0.0726	40	3.6123	0.1958	2e-04
435.5327	1.4845	Ce	inCorrect	1.468	ww	0.9993	0.9995	-2e-04	10	3.6123	0.1958	2e-04
439.0527	0.8674	bA	inCorrect	0.849	wl.l	0.9267	0.9994	-0.0727	60	3.6123	0.1958	2e-04
447.0917	1.1176	bF	inCorrect	1.108	ll	0.9267	0.9282	-0.0015	20	3.6123	0.1958	2e-04
450.6287	1.2843	fA	Correct	1.281	wl.u	0.9994	0.9282	0.0712	40	3.6123	0.1958	2e-04
454.6647	1.5513	bD	Correct	1.539	ll	0.8634	0.9267	-0.0633	10	3.6123	0.1958	2e-04
459.1847	1.1009	Ce	Correct	1.099	ww	0.9995	0.9993	2e-04	10	3.6123	0.1958	2e-04
463.2047	1.201	cA	inCorrect	1.192	ww	0.9995	0.9994	1e-04	10	3.6123	0.1958	2e-04
466.7417	1.3678	Ac	inCorrect	1.362	ww	0.9995	0.9994	1e-04	10	3.6123	0.1958	2e-04
471.2617	1.4011	eA	inCorrect	1.392	ww	0.9993	0.9994	-1e-04	20	3.6123	0.1958	2e-04
475.7817	1.4345	dE	Correct	1.422	wl.u	0.9993	0.8634	0.1359	30	3.6123	0.1958	2e-04
478.8177	0.9508	bE	Correct	0.933	wl.u	0.9993	0.9267	0.0726	40	3.6123	0.1958	2e-04
483.3377	1.1175	eC	inCorrect	1.114	ww	0.9993	0.9995	-2e-04	10	3.6123	0.1958	2e-04
487.3577	1.2176	Ac	inCorrect	1.212	ww	0.9995	0.9994	1e-04	10	3.6123	0.1958	2e-04
490.8937	1.718	dA	Correct	1.713	wl.u	0.9994	0.8634	0.136	50	3.6123	0.1958	2e-04
495.9147	1.6179	eA	Correct	1.613	ww	0.9994	0.9993	1e-04	20	3.6123	0.1958	2e-04
498.9507	0.6339	bC	inCorrect	0.626	wl.u	0.9267	0.9995	-0.0728	50	3.6123	0.1958	2e-04
503.9707	2.6355	Af	Correct	2.62	wl.u	0.9994	0.9282	0.0712	40	3.6123	0.1958	2e-04
511.4937	1.151	Ae	inCorrect	1.146	ww	0.9993	0.9994	-1e-04	20	3.6123	0.1958	2e-04
516.0137	1.0009	fA	Correct	0.998	wl.u	0.9994	0.9282	0.0712	40	3.6123	0.1958	2e-04
519.0497	1.1176	eA	inCorrect	1.111	ww	0.9993	0.9994	-1e-04	20	3.6123	0.1958	2e-04
