onset	duration	Pair	Response	RT	Cond	Q_choice	Q_notchosen	eQdiff	Rv_diff	Beta_Q	alpha_gain	alpha_loss
0.5336	2.2185	eA	inCorrect	2.208	ww	0.7548	0.9629	-0.2081	20	8.8011	0.0952	0.0245
4.5536	0.834	fC	Correct	0.825	wl.u	0.8888	0.6495	0.2393	30	8.8011	0.0952	0.0245
9.0736	2.0516	Ad	inCorrect	2.035	wl.u	0.5413	0.9629	-0.4216	50	8.8011	0.0952	0.0245
13.0936	1.3511	Cf	Correct	1.335	wl.u	0.8888	0.6495	0.2393	30	8.8011	0.0952	0.0245
16.1296	1.9182	eA	Correct	1.91	ww	0.9629	0.7548	0.2081	20	8.8011	0.0952	0.0245
21.1496	1.7181	Cf	Correct	1.712	wl.u	0.8888	0.6495	0.2393	30	8.8011	0.0952	0.0245
24.6696	1.0508	fA	Correct	1.035	wl.u	0.9629	0.6495	0.3134	40	8.8011	0.0952	0.0245
29.1896	1.3511	Db	Correct	1.339	ll	0.5413	0.532	0.0093	10	8.8011	0.0952	0.0245
32.2256	1.5346	Ce	Correct	1.521	ww	0.8888	0.7548	0.134	10	8.8011	0.0952	0.0245
36.2626	1.1509	Ab	Correct	1.146	wl.l	0.9629	0.532	0.4309	60	8.8011	0.0952	0.0245
40.7826	1.6013	dA	inCorrect	1.599	wl.u	0.5413	0.9629	-0.4216	50	8.8011	0.0952	0.0245
44.8026	1.4178	dC	Correct	1.403	wl.l	0.8888	0.5413	0.3475	40	8.8011	0.0952	0.0245
48.3386	1.251	Ed	inCorrect	1.238	wl.u	0.5413	0.7548	-0.2135	30	8.8011	0.0952	0.0245
52.3756	1.5513	Af	Correct	1.537	wl.u	0.9629	0.6495	0.3134	40	8.8011	0.0952	0.0245
56.4116	1.251	Af	Correct	1.24	wl.u	0.9629	0.6495	0.3134	40	8.8011	0.0952	0.0245
64.9356	3.0024	Db	Correct	2.988	ll	0.5413	0.532	0.0093	10	8.8011	0.0952	0.0245
68.4716	1.9349	Ab	Correct	1.925	wl.l	0.9629	0.532	0.4309	60	8.8011	0.0952	0.0245
73.4926	1.3011	Db	Correct	1.287	ll	0.5413	0.532	0.0093	10	8.8011	0.0952	0.0245
77.0126	1.4678	Ce	Correct	1.463	ww	0.8888	0.7548	0.134	10	8.8011	0.0952	0.0245
81.0316	1.3845	bD	Correct	1.374	ll	0.5413	0.532	0.0093	10	8.8011	0.0952	0.0245
84.5686	1.1843	Ed	inCorrect	1.174	wl.u	0.5413	0.7548	-0.2135	30	8.8011	0.0952	0.0245
88.6046	1.5346	Cb	Correct	1.531	wl.u	0.8888	0.532	0.3568	50	8.8011	0.0952	0.0245
93.6256	1.2343	bE	Correct	1.229	wl.u	0.7548	0.532	0.2228	40	8.8011	0.0952	0.0245
101.1486	2.2352	Fb	inCorrect	2.231	ll	0.532	0.6495	-0.1175	20	8.8011	0.0952	0.0245
105.1686	1.2677	Db	Correct	1.254	ll	0.5413	0.532	0.0093	10	8.8011	0.0952	0.0245
109.6886	2.1684	dE	inCorrect	2.159	wl.u	0.5413	0.7548	-0.2135	30	8.8011	0.0952	0.0245
112.7246	1.2343	bF	Correct	1.219	ll	0.6495	0.532	0.1175	20	8.8011	0.0952	0.0245
117.2446	2.0183	Eb	inCorrect	2.006	wl.u	0.532	0.7548	-0.2228	40	8.8011	0.0952	0.0245
120.7806	1.8182	Ce	Correct	1.809	ww	0.8888	0.7548	0.134	10	8.8011	0.0952	0.0245
125.3016	1.8348	cA	inCorrect	1.829	ww	0.8888	0.9629	-0.0741	10	8.8011	0.0952	0.0245
129.3216	2.0684	bF	inCorrect	2.065	ll	0.532	0.6495	-0.1175	20	8.8011	0.0952	0.0245
132.8576	2.2352	Db	Correct	2.224	ll	0.5413	0.532	0.0093	10	8.8011	0.0952	0.0245
136.8936	1.5346	fE	Correct	1.531	wl.l	0.7548	0.6495	0.1053	20	8.8011	0.0952	0.0245
141.9146	2.1184	fE	Correct	2.111	wl.l	0.7548	0.6495	0.1053	20	8.8011	0.0952	0.0245
145.9346	2.402	dE	inCorrect	2.384	wl.u	0.5413	0.7548	-0.2135	30	8.8011	0.0952	0.0245
149.4546	1.1843	bC	Correct	1.173	wl.u	0.8888	0.532	0.3568	50	8.8011	0.0952	0.0245
152.9906	1.8349	bF	inCorrect	1.825	ll	0.532	0.6495	-0.1175	20	8.8011	0.0952	0.0245
157.5106	1.2176	bF	Correct	1.213	ll	0.6495	0.532	0.1175	20	8.8011	0.0952	0.0245
165.5336	1.8681	Ce	Correct	1.866	ww	0.8888	0.7548	0.134	10	8.8011	0.0952	0.0245
169.5536	2.5521	Ac	Correct	2.537	ww	0.9629	0.8888	0.0741	10	8.8011	0.0952	0.0245
173.5736	1.1509	bE	Correct	1.145	wl.u	0.7548	0.532	0.2228	40	8.8011	0.0952	0.0245
177.1096	1.3845	dC	Correct	1.376	wl.l	0.8888	0.5413	0.3475	40	8.8011	0.0952	0.0245
182.1306	2.0516	Fb	inCorrect	2.043	ll	0.532	0.6495	-0.1175	20	8.8011	0.0952	0.0245
185.1666	2.4686	dA	Correct	2.451	wl.u	0.9629	0.5413	0.4216	50	8.8011	0.0952	0.0245
189.6866	2.5187	Eb	Correct	2.511	wl.u	0.7548	0.532	0.2228	40	8.8011	0.0952	0.0245
194.2076	1.5346	bC	Correct	1.529	wl.u	0.8888	0.532	0.3568	50	8.8011	0.0952	0.0245
197.7266	1.3344	Eb	Correct	1.318	wl.u	0.7548	0.532	0.2228	40	8.8011	0.0952	0.0245
201.2626	1.4345	dA	inCorrect	1.431	wl.u	0.5413	0.9629	-0.4216	50	8.8011	0.0952	0.0245
205.7836	1.4679	eA	inCorrect	1.452	ww	0.7548	0.9629	-0.2081	20	8.8011	0.0952	0.0245
209.8036	2.0851	Ab	Correct	2.071	wl.l	0.9629	0.532	0.4309	60	8.8011	0.0952	0.0245
213.8236	2.552	eC	Correct	2.536	ww	0.8888	0.7548	0.134	10	8.8011	0.0952	0.0245
217.8436	2.3853	Ae	inCorrect	2.382	ww	0.7548	0.9629	-0.2081	20	8.8011	0.0952	0.0245
221.3796	2.3186	bA	Correct	2.3	wl.l	0.9629	0.532	0.4309	60	8.8011	0.0952	0.0245
229.4356	1.8349	bE	Correct	1.816	wl.u	0.7548	0.532	0.2228	40	8.8011	0.0952	0.0245
233.4896	2.0684	Ad	Correct	2.061	wl.u	0.9629	0.5413	0.4216	50	8.8011	0.0952	0.0245
238.5096	1.251	fA	Correct	1.243	wl.u	0.9629	0.6495	0.3134	40	8.8011	0.0952	0.0245
242.0296	1.7681	Ce	Correct	1.758	ww	0.8888	0.7548	0.134	10	8.8011	0.0952	0.0245
246.0496	2.2352	fA	inCorrect	2.228	wl.u	0.6495	0.9629	-0.3134	40	8.8011	0.0952	0.0245
254.5726	1.2844	fC	Correct	1.28	wl.u	0.8888	0.6495	0.2393	30	8.8011	0.0952	0.0245
258.5926	1.5345	Db	Correct	1.529	ll	0.5413	0.532	0.0093	10	8.8011	0.0952	0.0245
262.1126	2.2685	Fd	Correct	2.266	ll	0.6495	0.5413	0.1082	10	8.8011	0.0952	0.0245
266.1326	1.3511	Ef	Correct	1.348	wl.l	0.7548	0.6495	0.1053	20	8.8011	0.0952	0.0245
270.1526	1.5346	bF	inCorrect	1.516	ll	0.532	0.6495	-0.1175	20	8.8011	0.0952	0.0245
274.1886	1.3177	dF	inCorrect	1.313	ll	0.5413	0.6495	-0.1082	10	8.8011	0.0952	0.0245
277.7256	1.0508	fC	Correct	1.04	wl.u	0.8888	0.6495	0.2393	30	8.8011	0.0952	0.0245
282.2456	1.7514	Cd	Correct	1.741	wl.l	0.8888	0.5413	0.3475	40	8.8011	0.0952	0.0245
286.7656	1.3678	bD	Correct	1.36	ll	0.5413	0.532	0.0093	10	8.8011	0.0952	0.0245
289.8016	1.2344	eA	Correct	1.228	ww	0.9629	0.7548	0.2081	20	8.8011	0.0952	0.0245
293.8386	2.2018	bD	Correct	2.198	ll	0.5413	0.532	0.0093	10	8.8011	0.0952	0.0245
298.3586	1.4512	Ce	Correct	1.44	ww	0.8888	0.7548	0.134	10	8.8011	0.0952	0.0245
302.8786	0.9841	bD	Correct	0.97	ll	0.5413	0.532	0.0093	10	8.8011	0.0952	0.0245
306.3986	1.5013	dC	Correct	1.494	wl.l	0.8888	0.5413	0.3475	40	8.8011	0.0952	0.0245
310.9186	1.3511	bE	Correct	1.34	wl.u	0.7548	0.532	0.2228	40	8.8011	0.0952	0.0245
314.9386	1.1009	Ef	Correct	1.086	wl.l	0.7548	0.6495	0.1053	20	8.8011	0.0952	0.0245
317.9746	1.7848	Ab	Correct	1.771	wl.l	0.9629	0.532	0.4309	60	8.8011	0.0952	0.0245
322.0106	2.1851	Cd	Correct	2.173	wl.l	0.8888	0.5413	0.3475	40	8.8011	0.0952	0.0245
327.0316	1.7347	dF	inCorrect	1.728	ll	0.5413	0.6495	-0.1082	10	8.8011	0.0952	0.0245
330.5516	2.035	Db	inCorrect	2.022	ll	0.532	0.5413	-0.0093	10	8.8011	0.0952	0.0245
334.5716	1.5179	Ad	Correct	1.508	wl.u	0.9629	0.5413	0.4216	50	8.8011	0.0952	0.0245
339.0916	2.2017	dE	inCorrect	2.188	wl.u	0.5413	0.7548	-0.2135	30	8.8011	0.0952	0.0245
342.1276	1.9182	Db	Correct	1.912	ll	0.5413	0.532	0.0093	10	8.8011	0.0952	0.0245
351.1516	1.7515	Ac	inCorrect	1.74	ww	0.8888	0.9629	-0.0741	10	8.8011	0.0952	0.0245
354.6706	1.4345	fA	Correct	1.425	wl.u	0.9629	0.6495	0.3134	40	8.8011	0.0952	0.0245
362.2106	0.9675	fC	Correct	0.956	wl.u	0.8888	0.6495	0.2393	30	8.8011	0.0952	0.0245
367.2316	1.2677	Cf	Correct	1.259	wl.u	0.8888	0.6495	0.2393	30	8.8011	0.0952	0.0245
370.2666	1.8515	dC	inCorrect	1.839	wl.l	0.5413	0.8888	-0.3475	40	8.8011	0.0952	0.0245
375.2876	1.5012	dE	inCorrect	1.491	wl.u	0.5413	0.7548	-0.2135	30	8.8011	0.0952	0.0245
382.8106	1.6346	Ab	Correct	1.626	wl.l	0.9629	0.532	0.4309	60	8.8011	0.0952	0.0245
386.3466	2.6021	Ac	inCorrect	2.589	ww	0.8888	0.9629	-0.0741	10	8.8011	0.0952	0.0245
391.3676	1.201	bF	inCorrect	1.192	ll	0.532	0.6495	-0.1175	20	8.8011	0.0952	0.0245
394.8866	1.8014	Ce	Correct	1.797	ww	0.8888	0.7548	0.134	10	8.8011	0.0952	0.0245
398.9066	1.9849	bE	Correct	1.967	wl.u	0.7548	0.532	0.2228	40	8.8011	0.0952	0.0245
403.4276	1.4012	bC	Correct	1.397	wl.u	0.8888	0.532	0.3568	50	8.8011	0.0952	0.0245
407.4476	1.9849	Fd	inCorrect	1.972	ll	0.5413	0.6495	-0.1082	10	8.8011	0.0952	0.0245
411.4666	2.4353	Ad	inCorrect	2.419	wl.u	0.5413	0.9629	-0.4216	50	8.8011	0.0952	0.0245
414.9866	1.7848	eC	Correct	1.771	ww	0.8888	0.7548	0.134	10	8.8011	0.0952	0.0245
419.0066	1.9516	eC	Correct	1.935	ww	0.8888	0.7548	0.134	10	8.8011	0.0952	0.0245
423.0266	2.3852	dA	inCorrect	2.37	wl.u	0.5413	0.9629	-0.4216	50	8.8011	0.0952	0.0245
427.0466	1.1843	dC	Correct	1.181	wl.l	0.8888	0.5413	0.3475	40	8.8011	0.0952	0.0245
431.5666	2.0517	Ac	inCorrect	2.033	ww	0.8888	0.9629	-0.0741	10	8.8011	0.0952	0.0245
435.6036	1.8515	Ed	inCorrect	1.84	wl.u	0.5413	0.7548	-0.2135	30	8.8011	0.0952	0.0245
443.1256	1.6514	fC	Correct	1.649	wl.u	0.8888	0.6495	0.2393	30	8.8011	0.0952	0.0245
447.1456	1.6013	Db	Correct	1.583	ll	0.5413	0.532	0.0093	10	8.8011	0.0952	0.0245
450.6986	0.9842	Fb	inCorrect	0.981	ll	0.532	0.6495	-0.1175	20	8.8011	0.0952	0.0245
455.2196	1.1676	bC	Correct	1.149	wl.u	0.8888	0.532	0.3568	50	8.8011	0.0952	0.0245
459.7396	1.0842	fA	Correct	1.066	wl.u	0.9629	0.6495	0.3134	40	8.8011	0.0952	0.0245
462.7916	1.9182	Fb	inCorrect	1.91	ll	0.532	0.6495	-0.1175	20	8.8011	0.0952	0.0245
467.8126	2.2852	Ac	inCorrect	2.279	ww	0.8888	0.9629	-0.0741	10	8.8011	0.0952	0.0245
471.3326	1.4345	bF	inCorrect	1.432	ll	0.532	0.6495	-0.1175	20	8.8011	0.0952	0.0245
475.3526	1.9683	Ed	inCorrect	1.95	wl.u	0.5413	0.7548	-0.2135	30	8.8011	0.0952	0.0245
483.3926	1.3511	Cd	Correct	1.333	wl.l	0.8888	0.5413	0.3475	40	8.8011	0.0952	0.0245
487.9126	1.8015	fE	Correct	1.788	wl.l	0.7548	0.6495	0.1053	20	8.8011	0.0952	0.0245
490.9486	2.869	dE	Correct	2.859	wl.u	0.7548	0.5413	0.2135	30	8.8011	0.0952	0.0245
495.4686	2.1685	Fb	Correct	2.158	ll	0.6495	0.532	0.1175	20	8.8011	0.0952	0.0245
499.4886	1.9849	fE	Correct	1.979	wl.l	0.7548	0.6495	0.1053	20	8.8011	0.0952	0.0245
503.0246	2.7355	dA	inCorrect	2.733	wl.u	0.5413	0.9629	-0.4216	50	8.8011	0.0952	0.0245
507.0616	1.6847	dE	Correct	1.673	wl.u	0.7548	0.5413	0.2135	30	8.8011	0.0952	0.0245
511.0976	1.7181	Fb	inCorrect	1.71	ll	0.532	0.6495	-0.1175	20	8.8011	0.0952	0.0245
515.1346	1.7014	dE	Correct	1.689	wl.u	0.7548	0.5413	0.2135	30	8.8011	0.0952	0.0245
519.6546	1.5346	dA	Correct	1.527	wl.u	0.9629	0.5413	0.4216	50	8.8011	0.0952	0.0245
