onset	duration	Pair	Choice	Response	RT	Feedback_Onset	Feedback_duration	Balance	RPE	Q_chosen	Q_notchosen	npair	Beta_Q	alpha_gain	alpha_loss
1.5179	1.0008	FE	F	Incorrect	0.997	3.2651	0.5047	1	0.183	0.817	0.9934	56	3.289	0.285	1e-04
4.537	0.9842	BA	B	Incorrect	0.97	6.2718	0.5171	-1	-0.9655	0.9655	0.9983	12	3.289	0.285	1e-04
8.557	1.0508	EF	F	Incorrect	1.038	10.3584	0.5171	-1	-0.8691	0.8691	0.9934	56	3.289	0.285	1e-04
25.8376	0.9508	AB	B	Incorrect	0.945	27.539	0.5171	-1	-0.9654	0.9654	0.9983	12	3.289	0.285	1e-04
29.3571	0.9842	DC	C	Correct	0.977	31.0919	0.5171	-1	-0.9998	0.9998	0.6421	34	3.289	0.285	1e-04
41.6004	0.3836	EF	E	Correct	0.376	42.7346	0.5171	1	0.0066	0.9934	0.8691	56	3.289	0.285	1e-04
44.6195	0.9674	CD	C	Correct	0.957	46.3375	0.5171	1	3e-04	0.9997	0.6421	34	3.289	0.285	1e-04
48.6394	1.1509	BA	B	Incorrect	1.14	50.5409	0.5171	-1	-0.9653	0.9653	0.9983	12	3.289	0.285	1e-04
57.8969	0.9341	EF	F	Incorrect	0.93	59.5816	0.5171	1	0.1309	0.8691	0.9953	56	3.289	0.285	1e-04
61.9168	0.5838	DC	C	Correct	0.57	63.2512	0.5171	1	2e-04	0.9998	0.6421	34	3.289	0.285	1e-04
65.4363	1.0342	EF	E	Correct	1.025	67.2211	0.5171	1	0.0047	0.9953	0.9064	56	3.289	0.285	1e-04
70.457	1.0009	AB	B	Incorrect	0.986	72.2085	0.517	-1	-0.9653	0.9653	0.9983	12	3.289	0.285	1e-04
80.5819	1.0842	EF	E	Correct	1.068	82.4167	0.5171	1	0.0034	0.9966	0.9064	56	3.289	0.285	1e-04
84.6185	0.9675	CD	C	Correct	0.951	86.3366	0.517	1	1e-04	0.9999	0.6421	34	3.289	0.285	1e-04
88.6551	1.0675	AB	A	Correct	1.054	90.4732	0.5171	1	0.0017	0.9983	0.9652	12	3.289	0.285	1e-04
92.6917	0.834	EF	F	Incorrect	0.822	94.2763	0.5171	-1	-0.9064	0.9064	0.9976	56	3.289	0.285	1e-04
97.212	1.1176	FE	E	Correct	1.108	99.0802	0.5171	1	0.0024	0.9976	0.9063	56	3.289	0.285	1e-04
110.0724	0.7673	CD	C	Correct	0.754	111.5903	0.5171	-1	-0.9999	0.9999	0.6421	34	3.289	0.285	1e-04
114.5928	1.0508	DC	C	Correct	1.038	116.3942	0.5171	-1	-0.9998	0.9998	0.6421	34	3.289	0.285	1e-04
118.1123	1.0174	FE	F	Incorrect	1.005	119.8804	0.517	-1	-0.9063	0.9063	0.9983	56	3.289	0.285	1e-04
122.1322	0.9174	DC	D	Incorrect	0.911	123.8002	0.5171	-1	-0.6421	0.6421	0.9997	34	3.289	0.285	1e-04
125.6684	0.7172	DC	D	Incorrect	0.705	127.1362	0.5171	-1	-0.642	0.642	0.9997	34	3.289	0.285	1e-04
130.1887	1.1009	EF	F	Incorrect	1.097	132.0402	0.5171	-1	-0.9062	0.9062	0.9983	56	3.289	0.285	1e-04
134.2086	0.9842	DC	C	Correct	0.969	135.9434	0.517	1	3e-04	0.9997	0.642	34	3.289	0.285	1e-04
138.2285	0.9675	BA	A	Correct	0.954	139.9466	0.5171	1	0.0012	0.9988	0.9652	12	3.289	0.285	1e-04
150.9889	1.0508	BA	B	Incorrect	1.035	152.7903	0.5171	-1	-0.9652	0.9652	0.9991	12	3.289	0.285	1e-04
155.5092	0.9341	FE	F	Incorrect	0.929	157.1939	0.5171	-1	-0.9062	0.9062	0.9983	56	3.289	0.285	1e-04
162.3814	1.0008	AB	B	Incorrect	0.987	164.1328	0.5171	1	0.0349	0.9651	0.9991	12	3.289	0.285	1e-04
174.5246	1.1509	BA	B	Incorrect	1.14	176.4261	0.5171	-1	-0.975	0.975	0.9991	12	3.289	0.285	1e-04
182.8813	0.5838	EF	F	Incorrect	0.576	184.2157	0.5171	-1	-0.9061	0.9061	0.9983	56	3.289	0.285	1e-04
187.9021	0.8506	EF	E	Correct	0.848	189.5034	0.517	1	0.0017	0.9983	0.906	56	3.289	0.285	1e-04
194.9411	0.6839	EF	E	Correct	0.666	196.3756	0.5171	-1	-0.9988	0.9988	0.906	56	3.289	0.285	1e-04
198.9777	0.834	DC	C	Correct	0.819	200.5623	0.5171	-1	-0.9998	0.9998	0.642	34	3.289	0.285	1e-04
203.0143	0.8173	FE	E	Correct	0.802	204.5822	0.5171	1	0.0013	0.9987	0.906	56	3.289	0.285	1e-04
207.5346	0.8173	EF	E	Correct	0.809	209.1025	0.5171	1	9e-04	0.9991	0.906	56	3.289	0.285	1e-04
212.5553	0.834	CD	C	Correct	0.818	214.14	0.517	1	3e-04	0.9997	0.642	34	3.289	0.285	1e-04
218.8604	0.417	EF	E	Correct	0.412	220.028	0.5171	1	7e-04	0.9993	0.906	56	3.289	0.285	1e-04
222.8804	1.0508	EF	F	Incorrect	1.042	224.6818	0.5171	1	0.094	0.906	0.9995	56	3.289	0.285	1e-04
226.4166	0.5671	AB	A	Correct	0.558	227.7343	0.5171	1	9e-04	0.9991	0.975	12	3.289	0.285	1e-04
230.9369	0.9341	CD	C	Correct	0.929	232.6216	0.5171	1	2e-04	0.9998	0.642	34	3.289	0.285	1e-04
235.4572	1.0342	AB	B	Incorrect	1.021	237.242	0.5171	-1	-0.975	0.975	0.9994	12	3.289	0.285	1e-04
239.9775	0.8674	EF	E	Correct	0.861	241.5955	0.5171	1	5e-04	0.9995	0.9328	56	3.289	0.285	1e-04
243.497	1.1009	DC	D	Incorrect	1.083	245.3485	0.5171	1	0.358	0.642	0.9999	34	3.289	0.285	1e-04
255.2899	1.1676	AB	B	Incorrect	1.155	257.2081	0.5171	-1	-0.9749	0.9749	0.9994	12	3.289	0.285	1e-04
260.811	1.1176	DC	C	Correct	1.105	262.6792	0.5171	-1	-0.9999	0.9999	0.744	34	3.289	0.285	1e-04
264.831	1.0508	CD	C	Correct	1.039	266.6324	0.5171	-1	-0.9998	0.9998	0.744	34	3.289	0.285	1e-04
271.6031	0.9341	DC	C	Correct	0.92	273.2878	0.5171	1	3e-04	0.9997	0.744	34	3.289	0.285	1e-04
279.6263	0.9674	AB	B	Incorrect	0.955	281.3443	0.5171	-1	-0.9748	0.9748	0.9994	12	3.289	0.285	1e-04
284.1466	0.7172	FE	E	Correct	0.712	285.6144	0.5171	1	3e-04	0.9997	0.9328	56	3.289	0.285	1e-04
287.1824	1.0175	DC	C	Correct	1.012	288.9505	0.5171	1	2e-04	0.9998	0.744	34	3.289	0.285	1e-04
291.7027	0.8507	DC	C	Correct	0.836	293.304	0.5171	-1	-0.9998	0.9998	0.744	34	3.289	0.285	1e-04
295.7226	0.9842	CD	C	Correct	0.97	297.4574	0.517	1	2e-04	0.9998	0.744	34	3.289	0.285	1e-04
300.7434	1.0508	DC	C	Correct	1.047	302.5448	0.5171	1	2e-04	0.9998	0.744	34	3.289	0.285	1e-04
308.2661	0.8674	CD	C	Correct	0.857	309.8841	0.5171	-1	-0.9999	0.9999	0.744	34	3.289	0.285	1e-04
311.3019	0.834	BA	B	Incorrect	0.816	312.8698	0.5171	1	0.0253	0.9747	0.9994	12	3.289	0.285	1e-04
319.7087	0.7673	AB	B	Incorrect	0.756	321.2266	0.5171	-1	-0.9819	0.9819	0.9994	12	3.289	0.285	1e-04
323.2282	0.7006	AB	B	Incorrect	0.692	324.6794	0.5171	-1	-0.9819	0.9819	0.9994	12	3.289	0.285	1e-04
327.2481	0.6506	DC	D	Incorrect	0.637	328.6493	0.517	-1	-0.744	0.744	0.9998	34	3.289	0.285	1e-04
331.268	0.5839	BA	A	Correct	0.571	332.6025	0.517	1	6e-04	0.9994	0.9818	12	3.289	0.285	1e-04
334.8042	1.1677	FE	E	Correct	1.161	336.7225	0.517	1	2e-04	0.9998	0.9328	56	3.289	0.285	1e-04
338.8408	1.1343	FE	E	Correct	1.128	340.7257	0.5171	1	2e-04	0.9998	0.9328	56	3.289	0.285	1e-04
342.8774	0.5505	FE	E	Correct	0.546	344.1785	0.5171	-1	-0.9999	0.9999	0.9328	56	3.289	0.285	1e-04
346.914	0.5171	DC	C	Correct	0.505	348.1817	0.5171	-1	-0.9998	0.9998	0.744	34	3.289	0.285	1e-04
351.9348	1.0175	CD	C	Correct	1	353.7029	0.5171	-1	-0.9997	0.9997	0.744	34	3.289	0.285	1e-04
354.9706	1.1676	FE	E	Correct	1.151	356.8888	0.5171	-1	-0.9998	0.9998	0.9328	56	3.289	0.285	1e-04
359.0072	1.1676	DC	C	Correct	1.149	360.9087	0.5171	1	4e-04	0.9996	0.744	34	3.289	0.285	1e-04
363.0604	0.9008	FE	E	Correct	0.894	364.7118	0.5171	1	3e-04	0.9997	0.9328	56	3.289	0.285	1e-04
371.8676	1.0842	FE	F	Incorrect	1.079	373.7024	0.5171	-1	-0.9328	0.9328	0.9998	56	3.289	0.285	1e-04
375.4038	0.884	AB	B	Incorrect	0.875	377.0384	0.5171	-1	-0.9818	0.9818	0.9996	12	3.289	0.285	1e-04
379.4404	1.1175	DC	C	Correct	1.114	381.3085	0.5171	-1	-0.9997	0.9997	0.744	34	3.289	0.285	1e-04
383.9607	0.8006	DC	C	Correct	0.794	385.5119	0.5171	-1	-0.9997	0.9997	0.744	34	3.289	0.285	1e-04
390.7662	0.3336	FE	F	Incorrect	0.331	391.8504	0.5171	1	0.0673	0.9327	0.9998	56	3.289	0.285	1e-04
394.8028	0.8173	DC	C	Correct	0.811	396.3707	0.5171	1	4e-04	0.9996	0.744	34	3.289	0.285	1e-04
398.8394	0.6005	EF	E	Correct	0.595	400.1905	0.5171	-1	-0.9998	0.9998	0.9519	56	3.289	0.285	1e-04
403.3597	0.4671	DC	D	Incorrect	0.464	404.5774	0.517	1	0.256	0.744	0.9997	34	3.289	0.285	1e-04
407.3796	1.201	FE	E	Correct	1.195	409.3312	0.5171	1	3e-04	0.9997	0.9519	56	3.289	0.285	1e-04
412.4004	0.7172	AB	B	Incorrect	0.714	413.8682	0.5171	-1	-0.9817	0.9817	0.9996	12	3.289	0.285	1e-04
416.4203	0.417	DC	D	Incorrect	0.414	417.5879	0.5171	1	0.1831	0.8169	0.9997	34	3.289	0.285	1e-04
420.4402	0.7006	BA	A	Correct	0.687	421.8914	0.517	1	4e-04	0.9996	0.9816	12	3.289	0.285	1e-04
423.4593	0.8006	DC	D	Incorrect	0.792	425.0106	0.517	-1	-0.8691	0.8691	0.9997	34	3.289	0.285	1e-04
432.4833	0.9674	DC	C	Correct	0.965	434.2013	0.5171	1	3e-04	0.9997	0.869	34	3.289	0.285	1e-04
436.0028	0.8507	FE	E	Correct	0.843	437.6041	0.5171	-1	-0.9998	0.9998	0.9519	56	3.289	0.285	1e-04
440.5231	0.4504	BA	B	Incorrect	0.445	441.7241	0.5171	-1	-0.9816	0.9816	0.9997	12	3.289	0.285	1e-04
444.0426	0.7506	CD	C	Correct	0.739	445.5438	0.5171	1	2e-04	0.9998	0.869	34	3.289	0.285	1e-04
451.0816	0.784	FE	E	Correct	0.774	452.6162	0.5171	-1	-0.9997	0.9997	0.9519	56	3.289	0.285	1e-04
455.602	0.4337	BA	B	Incorrect	0.431	456.7863	0.517	1	0.0185	0.9815	0.9997	12	3.289	0.285	1e-04
464.6259	0.2169	DC	D	Incorrect	0.214	465.5934	0.5171	-1	-0.869	0.869	0.9998	34	3.289	0.285	1e-04
467.6617	0.8674	FE	F	Incorrect	0.855	469.2797	0.5171	-1	-0.9519	0.9519	0.9996	56	3.289	0.285	1e-04
473.1829	1.0508	CD	C	Correct	1.043	474.9843	0.5171	-1	-0.9998	0.9998	0.869	34	3.289	0.285	1e-04
477.2028	0.7839	BA	B	Incorrect	0.778	478.7374	0.517	-1	-0.9868	0.9868	0.9997	12	3.289	0.285	1e-04
480.2219	0.9341	FE	E	Correct	0.93	481.9066	0.5171	1	4e-04	0.9996	0.9518	56	3.289	0.285	1e-04
489.2459	0.884	EF	F	Incorrect	0.87	490.8805	0.5171	-1	-0.9518	0.9518	0.9997	56	3.289	0.285	1e-04
493.2658	0.834	CD	D	Incorrect	0.818	494.8504	0.5171	1	0.131	0.869	0.9998	34	3.289	0.285	1e-04
500.2881	0.9841	EF	E	Correct	0.981	502.0229	0.517	1	3e-04	0.9997	0.9517	56	3.289	0.285	1e-04
505.3088	1.1677	AB	B	Incorrect	1.156	507.2271	0.5171	1	0.0133	0.9867	0.9997	12	3.289	0.285	1e-04
509.3288	0.9341	CD	C	Correct	0.916	510.9968	0.5171	1	2e-04	0.9998	0.9063	34	3.289	0.285	1e-04
516.8682	1.0008	FE	E	Correct	0.998	518.6196	0.5171	1	2e-04	0.9998	0.9517	56	3.289	0.285	1e-04
520.8881	0.8007	FE	E	Correct	0.797	522.4394	0.5171	-1	-0.9999	0.9999	0.9517	56	3.289	0.285	1e-04
524.4076	0.9842	CD	C	Correct	0.978	526.1424	0.5171	1	2e-04	0.9998	0.9063	34	3.289	0.285	1e-04
529.4284	0.7672	CD	C	Correct	0.751	530.9463	0.517	1	1e-04	0.9999	0.9063	34	3.289	0.285	1e-04
537.4515	0.9508	AB	B	Incorrect	0.934	539.1529	0.5171	-1	-0.9905	0.9905	0.9997	12	3.289	0.285	1e-04
540.971	0.6172	EF	E	Correct	0.615	542.3388	0.5171	-1	-0.9998	0.9998	0.9517	56	3.289	0.285	1e-04
544.991	0.7172	FE	F	Incorrect	0.705	546.4588	0.5171	1	0.0483	0.9517	0.9997	56	3.289	0.285	1e-04
549.0109	0.9341	DC	C	Correct	0.919	550.6956	0.5171	1	1e-04	0.9999	0.9063	34	3.289	0.285	1e-04
553.0308	0.7006	EF	F	Incorrect	0.685	554.482	0.517	-1	-0.9655	0.9655	0.9997	56	3.289	0.285	1e-04
556.5503	0.6338	EF	E	Correct	0.62	557.9348	0.517	1	3e-04	0.9997	0.9654	56	3.289	0.285	1e-04
561.0706	0.8007	CD	C	Correct	0.786	562.6219	0.5171	1	1e-04	0.9999	0.9063	34	3.289	0.285	1e-04
564.1064	0.7673	CD	C	Correct	0.758	565.6243	0.5171	1	0	1	0.9063	34	3.289	0.285	1e-04
569.6276	1.0341	CD	C	Correct	1.025	571.4123	0.5171	1	0	1	0.9063	34	3.289	0.285	1e-04
573.6475	0.7005	CD	C	Correct	0.691	575.0986	0.5171	-1	-1	1	0.9063	34	3.289	0.285	1e-04
579.9025	0.9008	CD	D	Incorrect	0.886	581.5539	0.517	-1	-0.9063	0.9063	0.9999	34	3.289	0.285	1e-04
584.4229	0.9841	EF	F	Incorrect	0.973	586.1576	0.5171	1	0.0346	0.9654	0.9998	56	3.289	0.285	1e-04
587.4586	0.6839	BA	A	Correct	0.676	588.8931	0.5171	1	3e-04	0.9997	0.9904	12	3.289	0.285	1e-04
596.983	1.201	CD	D	Incorrect	1.183	598.9346	0.5171	-1	-0.9062	0.9062	0.9999	34	3.289	0.285	1e-04
601.0029	0.9174	FE	E	Correct	0.908	602.671	0.517	-1	-0.9998	0.9998	0.9753	56	3.289	0.285	1e-04
605.0229	1.0508	FE	E	Correct	1.043	606.8243	0.5171	-1	-0.9997	0.9997	0.9753	56	3.289	0.285	1e-04
608.5424	0.884	EF	F	Incorrect	0.872	610.177	0.5171	1	0.0247	0.9753	0.9996	56	3.289	0.285	1e-04
616.9325	1.1509	EF	F	Incorrect	1.145	618.834	0.5171	1	0.0177	0.9823	0.9996	56	3.289	0.285	1e-04
623.9715	1.0675	CD	C	Correct	1.06	625.7897	0.517	1	1e-04	0.9999	0.9062	34	3.289	0.285	1e-04
628.4918	1.1176	AB	B	Incorrect	1.111	630.36	0.5171	-1	-0.9904	0.9904	0.9998	12	3.289	0.285	1e-04
632.5118	0.9841	EF	E	Correct	0.972	634.2465	0.5171	-1	-0.9996	0.9996	0.9874	56	3.289	0.285	1e-04
637.0321	0.9007	BA	B	Incorrect	0.884	638.6834	0.5171	-1	-0.9903	0.9903	0.9998	12	3.289	0.285	1e-04
645.3888	0.8841	BA	A	Correct	0.868	647.0235	0.5171	1	2e-04	0.9998	0.9903	12	3.289	0.285	1e-04
648.925	0.7006	BA	B	Incorrect	0.684	650.3762	0.5171	-1	-0.9903	0.9903	0.9998	12	3.289	0.285	1e-04
656.9649	0.8673	EF	F	Incorrect	0.86	658.5828	0.5171	1	0.0126	0.9874	0.9995	56	3.289	0.285	1e-04
661.0015	0.6338	FE	F	Incorrect	0.623	662.3859	0.5171	-1	-0.991	0.991	0.9995	56	3.289	0.285	1e-04
665.5218	0.9341	AB	A	Correct	0.916	667.2065	0.5171	1	2e-04	0.9998	0.9902	12	3.289	0.285	1e-04
669.0747	1.1509	BA	B	Incorrect	1.139	670.9762	0.5171	-1	-0.9902	0.9902	0.9999	12	3.289	0.285	1e-04
674.5958	0.834	BA	B	Incorrect	0.823	676.1804	0.5171	-1	-0.9901	0.9901	0.9999	12	3.289	0.285	1e-04
678.1153	1.1009	CD	C	Correct	1.085	679.9668	0.5171	-1	-0.9999	0.9999	0.9062	34	3.289	0.285	1e-04
