onset	duration	Pair	Response	RT	Cond	Q_choice	Q_notchosen	eQdiff	Rv_diff	Beta_Q	alpha_gain	alpha_loss
0.0494	0.6005	dE	inCorrect	0.597	wl.u	0.5156	0.5231	-0.0075	30	0.7848	0.0013	0
4.5704	0.467	bC	Correct	0.459	wl.u	0.5216	0.5128	0.0088	50	0.7848	0.0013	0
9.0904	0.3336	Cd	inCorrect	0.33	wl.l	0.5156	0.5216	-0.006	40	0.7848	0.0013	0
13.1104	0.2835	dE	inCorrect	0.276	wl.u	0.5156	0.5231	-0.0075	30	0.7848	0.0013	0
20.6324	0.417	eC	inCorrect	0.406	ww	0.5231	0.5216	0.0015	10	0.7848	0.0013	0
24.6524	0.3503	Eb	Correct	0.334	wl.u	0.5231	0.5128	0.0103	40	0.7848	0.0013	0
28.6724	0.5505	Ef	Correct	0.532	wl.l	0.5231	0.5183	0.0048	20	0.7848	0.0013	0
36.7124	0.4504	Ae	inCorrect	0.447	ww	0.5231	0.5199	0.0032	20	0.7848	0.0013	0
41.2324	0.2836	bF	inCorrect	0.273	ll	0.5128	0.5183	-0.0055	20	0.7848	0.0013	0
44.7524	0.4171	eC	inCorrect	0.404	ww	0.5231	0.5216	0.0015	10	0.7848	0.0013	0
48.2884	0.4838	Ed	inCorrect	0.466	wl.u	0.5156	0.5231	-0.0075	30	0.7848	0.0013	0
53.3094	0.6839	Ef	inCorrect	0.674	wl.l	0.5183	0.5231	-0.0048	20	0.7848	0.0013	0
57.3294	0.5004	Cf	inCorrect	0.486	wl.u	0.5183	0.5216	-0.0033	30	0.7848	0.0013	0
61.3494	0.3336	eC	Correct	0.33	ww	0.5216	0.5231	-0.0015	10	0.7848	0.0013	0
68.3884	0.3336	fE	inCorrect	0.315	wl.l	0.5183	0.5231	-0.0048	20	0.7848	0.0013	0
73.4084	0.3669	dE	Correct	0.358	wl.u	0.5231	0.5156	0.0075	30	0.7848	0.0013	0
76.9284	0.4503	dE	inCorrect	0.442	wl.u	0.5156	0.5231	-0.0075	30	0.7848	0.0013	0
80.4644	0.8173	dF	Correct	0.8	ll	0.5183	0.5156	0.0027	10	0.7848	0.0013	0
85.4854	0.5337	fC	Correct	0.526	wl.u	0.5216	0.5183	0.0033	30	0.7848	0.0013	0
88.5214	0.3669	dA	Correct	0.354	wl.u	0.5199	0.5156	0.0043	50	0.7848	0.0013	0
93.0414	0.3336	Ac	inCorrect	0.331	ww	0.5216	0.5199	0.0017	10	0.7848	0.0013	0
101.5644	0.7006	Af	Correct	0.685	wl.u	0.5199	0.5183	0.0016	40	0.7848	0.0013	0
104.6004	0.5504	eC	inCorrect	0.544	ww	0.5231	0.5216	0.0015	10	0.7848	0.0013	0
109.6214	0.5338	Ac	inCorrect	0.52	ww	0.5216	0.5199	0.0017	10	0.7848	0.0013	0
112.6574	0.6005	cA	inCorrect	0.584	ww	0.5216	0.5199	0.0017	10	0.7848	0.0013	0
117.6774	0.2335	eC	Correct	0.231	ww	0.5216	0.5231	-0.0015	10	0.7848	0.0013	0
120.7134	0.3836	Ef	Correct	0.372	wl.l	0.5231	0.5183	0.0048	20	0.7848	0.0013	0
125.2334	0.5004	Fb	inCorrect	0.483	ll	0.5128	0.5183	-0.0055	20	0.7848	0.0013	0
129.2534	0.417	Ae	Correct	0.414	ww	0.5199	0.5231	-0.0032	20	0.7848	0.0013	0
133.2734	0.3336	Fd	inCorrect	0.322	ll	0.5156	0.5183	-0.0027	10	0.7848	0.0013	0
136.8094	0.9674	eC	inCorrect	0.963	ww	0.5231	0.5216	0.0015	10	0.7848	0.0013	0
140.8464	0.3169	fC	Correct	0.303	wl.u	0.5216	0.5183	0.0033	30	0.7848	0.0013	0
145.8674	0.5838	Af	Correct	0.574	wl.u	0.5199	0.5183	0.0016	40	0.7848	0.0013	0
149.3864	0.4337	fC	Correct	0.419	wl.u	0.5216	0.5183	0.0033	30	0.7848	0.0013	0
153.9074	0.2836	Cf	Correct	0.268	wl.u	0.5216	0.5183	0.0033	30	0.7848	0.0013	0
157.4264	0.4671	bE	inCorrect	0.462	wl.u	0.5128	0.5231	-0.0103	40	0.7848	0.0013	0
160.9624	2.1517	Ef	inCorrect	2.139	wl.l	0.5183	0.5231	-0.0048	20	0.7848	0.0013	0
165.4834	0.3837	Ad	Correct	0.373	wl.u	0.5199	0.5156	0.0043	50	0.7848	0.0013	0
169.0194	0.2669	Ad	inCorrect	0.262	wl.u	0.5156	0.5199	-0.0043	50	0.7848	0.0013	0
173.5394	0.3503	dC	inCorrect	0.338	wl.l	0.5156	0.5216	-0.006	40	0.7848	0.0013	0
177.5594	0.9508	Eb	inCorrect	0.932	wl.u	0.5128	0.5231	-0.0103	40	0.7848	0.0013	0
181.5964	0.4337	Ae	Correct	0.428	ww	0.5199	0.5231	-0.0032	20	0.7848	0.0013	0
185.1324	0.417	cA	inCorrect	0.401	ww	0.5216	0.5199	0.0017	10	0.7848	0.0013	0
189.1684	0.2669	Fb	inCorrect	0.264	ll	0.5128	0.5183	-0.0055	20	0.7848	0.0013	0
194.1894	0.417	bE	Correct	0.405	wl.u	0.5231	0.5128	0.0103	40	0.7848	0.0013	0
197.7094	0.1835	Cf	inCorrect	0.173	wl.u	0.5183	0.5216	-0.0033	30	0.7848	0.0013	0
201.2454	0.417	Cb	Correct	0.412	wl.u	0.5216	0.5128	0.0088	50	0.7848	0.0013	0
205.2814	0.4336	Ae	Correct	0.423	ww	0.5199	0.5231	-0.0032	20	0.7848	0.0013	0
209.8024	0.3002	Ac	Correct	0.288	ww	0.5199	0.5216	-0.0017	10	0.7848	0.0013	0
213.8224	0.3336	dC	Correct	0.324	wl.l	0.5216	0.5156	0.006	40	0.7848	0.0013	0
217.8414	0.2669	eC	Correct	0.254	ww	0.5216	0.5231	-0.0015	10	0.7848	0.0013	0
221.3784	0.2335	fE	inCorrect	0.217	wl.l	0.5183	0.5231	-0.0048	20	0.7848	0.0013	0
225.8984	0.3669	Eb	inCorrect	0.349	wl.u	0.5128	0.5231	-0.0103	40	0.7848	0.0013	0
229.9184	1.3344	Db	Correct	1.322	ll	0.5156	0.5128	0.0028	10	0.7848	0.0013	0
233.4544	1.1676	dE	inCorrect	1.163	wl.u	0.5156	0.5231	-0.0075	30	0.7848	0.0013	0
237.9744	0.2836	bF	Correct	0.272	ll	0.5183	0.5128	0.0055	20	0.7848	0.0013	0
241.9944	0.2669	Ef	inCorrect	0.25	wl.l	0.5183	0.5231	-0.0048	20	0.7848	0.0013	0
246.0144	0.7673	bD	inCorrect	0.758	ll	0.5128	0.5156	-0.0028	10	0.7848	0.0013	0
249.5504	0.4503	Ae	inCorrect	0.438	ww	0.5231	0.5199	0.0032	20	0.7848	0.0013	0
254.5714	0.3169	dE	Correct	0.3	wl.u	0.5231	0.5156	0.0075	30	0.7848	0.0013	0
258.0914	0.5004	dA	Correct	0.487	wl.u	0.5199	0.5156	0.0043	50	0.7848	0.0013	0
262.6114	0.4504	bA	Correct	0.434	wl.l	0.5199	0.5128	0.0071	60	0.7848	0.0013	0
266.6314	0.3003	bA	inCorrect	0.29	wl.l	0.5128	0.5199	-0.0071	60	0.7848	0.0013	0
269.6674	0.3002	Cd	Correct	0.294	wl.l	0.5216	0.5156	0.006	40	0.7848	0.0013	0
274.1874	0.0334	Ac	inCorrect	0.028	ww	0.5216	0.5199	0.0017	10	0.7848	0.0013	0
278.7074	0.5338	Fd	inCorrect	0.518	ll	0.5156	0.5183	-0.0027	10	0.7848	0.0013	0
282.2274	0.3837	Ad	Correct	0.379	wl.u	0.5199	0.5156	0.0043	50	0.7848	0.0013	0
285.7634	0.367	Fb	Correct	0.362	ll	0.5183	0.5128	0.0055	20	0.7848	0.0013	0
290.7844	0.3503	dA	inCorrect	0.341	wl.u	0.5156	0.5199	-0.0043	50	0.7848	0.0013	0
294.3034	0.4337	bF	Correct	0.416	ll	0.5183	0.5128	0.0055	20	0.7848	0.0013	0
298.3234	0.2669	Ef	inCorrect	0.248	wl.l	0.5183	0.5231	-0.0048	20	0.7848	0.0013	0
306.3634	0.2835	Ce	Correct	0.272	ww	0.5216	0.5231	-0.0015	10	0.7848	0.0013	0
310.3834	0.8006	cA	inCorrect	0.782	ww	0.5216	0.5199	0.0017	10	0.7848	0.0013	0
313.9364	0.3503	eA	Correct	0.338	ww	0.5199	0.5231	-0.0032	20	0.7848	0.0013	0
318.4564	0.3336	dC	Correct	0.326	wl.l	0.5216	0.5156	0.006	40	0.7848	0.0013	0
322.4764	0.3503	Ce	inCorrect	0.348	ww	0.5231	0.5216	0.0015	10	0.7848	0.0013	0
326.9964	0.3669	Cb	Correct	0.353	wl.u	0.5216	0.5128	0.0088	50	0.7848	0.0013	0
331.0164	0.2835	Cd	inCorrect	0.272	wl.l	0.5156	0.5216	-0.006	40	0.7848	0.0013	0
334.5364	0.4336	Fd	Correct	0.423	ll	0.5183	0.5156	0.0027	10	0.7848	0.0013	0
342.0754	0.834	Fd	inCorrect	0.827	ll	0.5156	0.5183	-0.0027	10	0.7848	0.0013	0
347.0964	1.3511	Cf	Correct	1.344	wl.u	0.5216	0.5183	0.0033	30	0.7848	0.0013	0
350.6154	1.0842	fA	Correct	1.072	wl.u	0.5199	0.5183	0.0016	40	0.7848	0.0013	0
359.1394	0.4337	fA	inCorrect	0.424	wl.u	0.5183	0.5199	-0.0016	40	0.7848	0.0013	0
362.6584	0.5505	fA	inCorrect	0.534	wl.u	0.5183	0.5199	-0.0016	40	0.7848	0.0013	0
366.1944	0.7339	Db	inCorrect	0.726	ll	0.5128	0.5156	-0.0028	10	0.7848	0.0013	0
370.7154	0.0834	Cd	inCorrect	0.07	wl.l	0.5156	0.5216	-0.006	40	0.7848	0.0013	0
375.2354	0.3837	bD	inCorrect	0.38	ll	0.5128	0.5156	-0.0028	10	0.7848	0.0013	0
382.2744	0.6171	Ed	Correct	0.613	wl.u	0.5231	0.5156	0.0075	30	0.7848	0.0013	0
386.3114	0.5338	bF	Correct	0.529	ll	0.5183	0.5128	0.0055	20	0.7848	0.0013	0
391.3314	0.3337	Ad	Correct	0.324	wl.u	0.5199	0.5156	0.0043	50	0.7848	0.0013	0
394.8514	0.8173	bD	inCorrect	0.81	ll	0.5128	0.5156	-0.0028	10	0.7848	0.0013	0
398.8714	2.2685	fC	Correct	2.251	wl.u	0.5216	0.5183	0.0033	30	0.7848	0.0013	0
402.4074	0.6839	bC	Correct	0.674	wl.u	0.5216	0.5128	0.0088	50	0.7848	0.0013	0
406.4434	0.3003	Ed	Correct	0.285	wl.u	0.5231	0.5156	0.0075	30	0.7848	0.0013	0
414.9674	0.3169	Db	Correct	0.313	ll	0.5156	0.5128	0.0028	10	0.7848	0.0013	0
418.5034	0.4503	dE	inCorrect	0.447	wl.u	0.5156	0.5231	-0.0075	30	0.7848	0.0013	0
423.0244	0.3836	Db	inCorrect	0.381	ll	0.5128	0.5156	-0.0028	10	0.7848	0.0013	0
426.5604	0.3003	Ce	Correct	0.296	ww	0.5216	0.5231	-0.0015	10	0.7848	0.0013	0
430.5964	0.317	Ad	Correct	0.31	wl.u	0.5199	0.5156	0.0043	50	0.7848	0.0013	0
435.6174	0.4003	cA	Correct	0.394	ww	0.5199	0.5216	-0.0017	10	0.7848	0.0013	0
439.6374	0.5838	bA	inCorrect	0.568	wl.l	0.5128	0.5199	-0.0071	60	0.7848	0.0013	0
443.6574	0.4003	bD	inCorrect	0.396	ll	0.5128	0.5156	-0.0028	10	0.7848	0.0013	0
447.1764	0.3836	bF	Correct	0.37	ll	0.5183	0.5128	0.0055	20	0.7848	0.0013	0
451.1964	0.2669	Cf	Correct	0.261	wl.u	0.5216	0.5183	0.0033	30	0.7848	0.0013	0
455.7174	0.3336	bC	Correct	0.319	wl.u	0.5216	0.5128	0.0088	50	0.7848	0.0013	0
458.7524	0.3836	dA	inCorrect	0.369	wl.u	0.5156	0.5199	-0.0043	50	0.7848	0.0013	0
463.7734	0.5504	Cf	inCorrect	0.542	wl.u	0.5183	0.5216	-0.0033	30	0.7848	0.0013	0
466.8094	0.884	dA	Correct	0.867	wl.u	0.5199	0.5156	0.0043	50	0.7848	0.0013	0
471.3294	0.5671	eC	inCorrect	0.559	ww	0.5231	0.5216	0.0015	10	0.7848	0.0013	0
474.8654	0.9007	Ed	inCorrect	0.882	wl.u	0.5156	0.5231	-0.0075	30	0.7848	0.0013	0
478.9194	0.7506	bC	Correct	0.733	wl.u	0.5216	0.5128	0.0088	50	0.7848	0.0013	0
483.9394	0.5004	bE	Correct	0.49	wl.u	0.5231	0.5128	0.0103	40	0.7848	0.0013	0
491.4624	0.3169	Fb	Correct	0.302	ll	0.5183	0.5128	0.0055	20	0.7848	0.0013	0
494.9984	0.7672	fE	inCorrect	0.754	wl.l	0.5183	0.5231	-0.0048	20	0.7848	0.0013	0
499.5194	0.4837	Fd	inCorrect	0.47	ll	0.5156	0.5183	-0.0027	10	0.7848	0.0013	0
507.0584	0.6839	eA	inCorrect	0.678	ww	0.5231	0.5199	0.0032	20	0.7848	0.0013	0
512.0794	0.5838	dF	Correct	0.576	ll	0.5183	0.5156	0.0027	10	0.7848	0.0013	0
515.5984	0.3169	dC	Correct	0.306	wl.l	0.5216	0.5156	0.006	40	0.7848	0.0013	0
519.6184	0.2669	bD	inCorrect	0.264	ll	0.5128	0.5156	-0.0028	10	0.7848	0.0013	0
527.1574	0.3336	Cd	Correct	0.328	wl.l	0.5216	0.5156	0.006	40	0.7848	0.0013	0
