onset	duration	Pair	Choice	Response	RT	Feedback_Onset	Feedback_duration	Balance	RPE	Q_chosen	Q_notchosen	npair	Beta_Q	alpha_gain	alpha_loss
0.5338	1.0509	AB	A	Correct	1.045	2.3353	0.517	-1	-0.5	0.5	0.5	12	4.5775	0.0694	3e-04
4.5537	0.9508	BA	B	Incorrect	0.936	6.2551	0.5171	-1	-0.5	0.5	0.4999	12	4.5775	0.0694	3e-04
11.476	0.7339	FE	F	Incorrect	0.724	12.9605	0.5171	-1	-0.5	0.5	0.5	56	4.5775	0.0694	3e-04
16.9971	0.9841	CD	D	Incorrect	0.97	18.7318	0.5171	1	0.5	0.5	0.5	34	4.5775	0.0694	3e-04
21.017	1.0342	BA	B	Incorrect	1.017	22.8018	0.517	-1	-0.4999	0.4999	0.4999	12	4.5775	0.0694	3e-04
25.0369	0.9508	FE	E	Correct	0.936	26.7383	0.5171	1	0.5	0.5	0.4999	56	4.5775	0.0694	3e-04
35.3118	0.734	FE	F	Incorrect	0.725	36.7964	0.5171	-1	-0.4999	0.4999	0.5347	56	4.5775	0.0694	3e-04
40.833	0.8173	DC	D	Incorrect	0.809	42.4009	0.5171	-1	-0.5347	0.5347	0.5	34	4.5775	0.0694	3e-04
51.7418	0.9174	BA	B	Incorrect	0.905	53.4098	0.5171	-1	-0.4997	0.4997	0.4999	12	4.5775	0.0694	3e-04
55.2779	0.9008	AB	A	Correct	0.885	56.9293	0.5171	1	0.5001	0.4999	0.4996	12	4.5775	0.0694	3e-04
59.7983	1.0842	EF	E	Correct	1.068	61.6331	0.5171	1	0.4653	0.5347	0.4997	56	4.5775	0.0694	3e-04
63.8182	1.1009	CD	D	Incorrect	1.092	65.6697	0.517	-1	-0.5346	0.5346	0.5	34	4.5775	0.0694	3e-04
72.3417	0.9007	BA	B	Incorrect	0.898	73.993	0.5171	-1	-0.4996	0.4996	0.5346	12	4.5775	0.0694	3e-04
75.3775	1.1176	EF	E	Correct	1.11	77.2457	0.517	1	0.433	0.567	0.4997	56	4.5775	0.0694	3e-04
84.8685	1.1175	AB	A	Correct	1.102	86.7366	0.5171	-1	-0.5346	0.5346	0.4995	12	4.5775	0.0694	3e-04
88.8884	1.1843	BA	A	Correct	1.171	90.8233	0.5171	1	0.4655	0.5345	0.4995	12	4.5775	0.0694	3e-04
92.4079	0.9674	FE	E	Correct	0.965	94.1259	0.5171	1	0.4029	0.5971	0.4997	56	4.5775	0.0694	3e-04
96.4278	0.9508	CD	C	Correct	0.938	98.1292	0.517	1	0.5	0.5	0.5344	34	4.5775	0.0694	3e-04
101.4485	1.0175	BA	B	Incorrect	1.006	103.2166	0.5171	-1	-0.4995	0.4995	0.5668	12	4.5775	0.0694	3e-04
104.4676	0.9841	AB	A	Correct	0.973	106.2023	0.5171	1	0.4332	0.5668	0.4994	12	4.5775	0.0694	3e-04
113.4915	1.1677	DC	D	Incorrect	1.161	115.4098	0.517	-1	-0.5344	0.5344	0.5347	34	4.5775	0.0694	3e-04
117.5115	1.0341	BA	A	Correct	1.017	119.2962	0.5171	1	0.4031	0.5969	0.4994	12	4.5775	0.0694	3e-04
120.0468	0.9508	FE	E	Correct	0.945	121.7482	0.5171	-1	-0.625	0.625	0.4997	56	4.5775	0.0694	3e-04
124.5671	1.1176	DC	D	Incorrect	1.101	126.4353	0.5171	-1	-0.5343	0.5343	0.5347	34	4.5775	0.0694	3e-04
128.5871	1.1342	AB	A	Correct	1.125	130.4719	0.5171	1	0.3752	0.6248	0.4994	12	4.5775	0.0694	3e-04
132.607	0.884	EF	E	Correct	0.878	134.2416	0.5171	1	0.3751	0.6249	0.4997	56	4.5775	0.0694	3e-04
137.6277	1.1175	AB	B	Incorrect	1.114	139.4958	0.5171	-1	-0.4994	0.4994	0.6509	12	4.5775	0.0694	3e-04
140.6468	1.0175	FE	E	Correct	0.999	142.3982	0.5171	1	0.3491	0.6509	0.4997	56	4.5775	0.0694	3e-04
144.6834	1.0675	CD	D	Incorrect	1.059	146.5015	0.5171	-1	-0.5342	0.5342	0.5347	34	4.5775	0.0694	3e-04
149.7041	1.1843	CD	C	Correct	1.168	151.639	0.5171	1	0.4653	0.5347	0.534	34	4.5775	0.0694	3e-04
153.724	0.9508	FE	E	Correct	0.943	155.4254	0.517	1	0.3248	0.6752	0.4997	56	4.5775	0.0694	3e-04
162.1141	1.0008	AB	A	Correct	0.997	163.8655	0.5171	1	0.3491	0.6509	0.4992	12	4.5775	0.0694	3e-04
166.134	0.884	FE	E	Correct	0.867	167.7686	0.5171	1	0.3023	0.6977	0.4997	56	4.5775	0.0694	3e-04
170.1539	0.9508	DC	C	Correct	0.944	171.8553	0.5171	-1	-0.567	0.567	0.534	34	4.5775	0.0694	3e-04
174.6742	0.9007	EF	E	Correct	0.885	176.3255	0.5171	1	0.2813	0.7187	0.4997	56	4.5775	0.0694	3e-04
177.2096	1.0508	CD	C	Correct	1.045	179.011	0.5171	1	0.4331	0.5669	0.534	34	4.5775	0.0694	3e-04
182.2303	0.9341	CD	C	Correct	0.923	183.915	0.5171	-1	-0.5969	0.5969	0.534	34	4.5775	0.0694	3e-04
185.7498	1.1009	EF	E	Correct	1.088	187.6013	0.5171	1	0.2618	0.7382	0.4997	56	4.5775	0.0694	3e-04
194.0231	0.8341	EF	E	Correct	0.818	195.6078	0.517	1	0.2436	0.7564	0.4997	56	4.5775	0.0694	3e-04
197.0589	1.1176	DC	D	Incorrect	1.113	198.9271	0.5171	-1	-0.534	0.534	0.5968	34	4.5775	0.0694	3e-04
201.0955	0.8173	EF	E	Correct	0.814	202.6634	0.5171	-1	-0.7733	0.7733	0.4997	56	4.5775	0.0694	3e-04
206.6166	0.8674	CD	C	Correct	0.853	208.2346	0.5171	1	0.4032	0.5968	0.5339	34	4.5775	0.0694	3e-04
210.6365	0.6506	CD	C	Correct	0.637	212.0377	0.5171	-1	-0.6248	0.6248	0.5339	34	4.5775	0.0694	3e-04
214.156	0.7506	DC	C	Correct	0.74	215.6573	0.517	-1	-0.6246	0.6246	0.5339	34	4.5775	0.0694	3e-04
217.6755	1.201	BA	B	Incorrect	1.183	219.6104	0.5171	-1	-0.4992	0.4992	0.6751	12	4.5775	0.0694	3e-04
221.6955	1.0508	AB	A	Correct	1.033	223.4802	0.5171	1	0.3249	0.6751	0.4991	12	4.5775	0.0694	3e-04
226.2158	0.9007	AB	A	Correct	0.888	227.8671	0.5171	1	0.3023	0.6977	0.4991	12	4.5775	0.0694	3e-04
229.2515	0.9842	DC	D	Incorrect	0.98	230.9863	0.5171	1	0.4661	0.5339	0.6245	34	4.5775	0.0694	3e-04
233.7719	0.834	DC	D	Incorrect	0.82	235.3565	0.5171	-1	-0.5663	0.5663	0.6245	34	4.5775	0.0694	3e-04
238.7926	1.1342	BA	B	Incorrect	1.129	240.6774	0.5171	-1	-0.4991	0.4991	0.7187	12	4.5775	0.0694	3e-04
246.5321	0.8841	DC	D	Incorrect	0.873	248.1668	0.5171	-1	-0.5661	0.5661	0.6245	34	4.5775	0.0694	3e-04
249.5679	0.6339	DC	C	Correct	0.62	250.9524	0.5171	1	0.3755	0.6245	0.566	34	4.5775	0.0694	3e-04
254.0882	0.9508	CD	C	Correct	0.938	255.7896	0.5171	1	0.3495	0.6505	0.566	34	4.5775	0.0694	3e-04
258.1081	0.9341	FE	E	Correct	0.927	259.7928	0.5171	1	0.2269	0.7731	0.4997	56	4.5775	0.0694	3e-04
266.1313	0.834	EF	F	Incorrect	0.831	267.7159	0.5171	-1	-0.4997	0.4997	0.7889	56	4.5775	0.0694	3e-04
269.6675	1.1009	AB	A	Correct	1.085	271.519	0.517	1	0.2813	0.7187	0.499	12	4.5775	0.0694	3e-04
274.6882	0.9507	EF	E	Correct	0.935	276.3895	0.5171	-1	-0.7889	0.7889	0.4996	56	4.5775	0.0694	3e-04
279.2085	0.834	FE	E	Correct	0.827	280.7931	0.5171	-1	-0.7887	0.7887	0.4996	56	4.5775	0.0694	3e-04
285.6804	0.7005	FE	F	Incorrect	0.686	287.1315	0.5171	1	0.5004	0.4996	0.7885	56	4.5775	0.0694	3e-04
290.7011	0.784	DC	D	Incorrect	0.766	292.2357	0.517	-1	-0.566	0.566	0.6748	34	4.5775	0.0694	3e-04
295.2214	0.8507	BA	B	Incorrect	0.841	296.8227	0.5171	1	0.501	0.499	0.7382	12	4.5775	0.0694	3e-04
297.7568	0.9341	BA	B	Incorrect	0.925	299.4415	0.5171	-1	-0.5338	0.5338	0.7382	12	4.5775	0.0694	3e-04
301.7934	1.0341	EF	F	Incorrect	1.031	303.5781	0.5171	1	0.4656	0.5344	0.7885	56	4.5775	0.0694	3e-04
307.3145	0.9841	CD	C	Correct	0.982	309.0492	0.5171	-1	-0.6748	0.6748	0.5658	34	4.5775	0.0694	3e-04
310.834	0.784	CD	C	Correct	0.773	312.3686	0.517	1	0.3254	0.6746	0.5658	34	4.5775	0.0694	3e-04
314.3535	0.8006	EF	E	Correct	0.79	315.9047	0.5171	1	0.2115	0.7885	0.5667	56	4.5775	0.0694	3e-04
318.8738	0.8507	DC	D	Incorrect	0.839	320.4751	0.5171	1	0.4342	0.5658	0.6972	34	4.5775	0.0694	3e-04
325.9128	0.8674	BA	B	Incorrect	0.852	327.5308	0.5171	-1	-0.5336	0.5336	0.7382	12	4.5775	0.0694	3e-04
330.9335	1.0842	AB	A	Correct	1.068	332.7683	0.5171	1	0.2618	0.7382	0.5335	12	4.5775	0.0694	3e-04
334.9534	0.9174	AB	A	Correct	0.912	336.6214	0.5171	1	0.2436	0.7564	0.5335	12	4.5775	0.0694	3e-04
339.4737	1.0342	DC	D	Incorrect	1.025	341.2585	0.5171	1	0.404	0.596	0.6972	34	4.5775	0.0694	3e-04
342.4928	0.9341	BA	A	Correct	0.917	344.1775	0.5171	1	0.2267	0.7733	0.5335	12	4.5775	0.0694	3e-04
347.0132	0.934	FE	E	Correct	0.93	348.6978	0.5171	-1	-0.8031	0.8031	0.5667	56	4.5775	0.0694	3e-04
351.0331	0.9507	BA	B	Incorrect	0.946	352.7344	0.5171	1	0.4665	0.5335	0.789	12	4.5775	0.0694	3e-04
355.5534	0.6672	AB	A	Correct	0.656	356.9712	0.5171	1	0.211	0.789	0.5659	12	4.5775	0.0694	3e-04
358.5725	0.6171	EF	E	Correct	0.604	359.9402	0.5171	-1	-0.8029	0.8029	0.5667	56	4.5775	0.0694	3e-04
363.5932	0.7506	FE	E	Correct	0.734	365.0944	0.5171	-1	-0.8027	0.8027	0.5667	56	4.5775	0.0694	3e-04
367.6131	0.9341	CD	D	Incorrect	0.917	369.2978	0.5171	-1	-0.624	0.624	0.6972	34	4.5775	0.0694	3e-04
371.1326	0.9341	CD	D	Incorrect	0.917	372.8173	0.5171	1	0.3761	0.6239	0.6972	34	4.5775	0.0694	3e-04
374.6521	1.1176	AB	A	Correct	1.11	376.5203	0.5171	1	0.1963	0.8037	0.5659	12	4.5775	0.0694	3e-04
378.1883	0.9007	EF	E	Correct	0.887	379.8396	0.5171	1	0.1975	0.8025	0.5667	56	4.5775	0.0694	3e-04
382.2249	0.834	FE	F	Incorrect	0.816	383.8095	0.5171	-1	-0.5667	0.5667	0.8162	56	4.5775	0.0694	3e-04
387.2456	0.9007	DC	D	Incorrect	0.895	388.8969	0.5171	1	0.35	0.65	0.6972	34	4.5775	0.0694	3e-04
390.7651	0.784	DC	C	Correct	0.778	392.2997	0.517	-1	-0.6972	0.6972	0.6743	34	4.5775	0.0694	3e-04
395.7858	0.8674	FE	E	Correct	0.859	397.4038	0.5171	1	0.1838	0.8162	0.5665	56	4.5775	0.0694	3e-04
398.3212	0.8006	AB	A	Correct	0.795	399.8724	0.5171	1	0.1827	0.8173	0.5659	12	4.5775	0.0694	3e-04
402.3578	0.7506	FE	E	Correct	0.738	403.859	0.5171	1	0.171	0.829	0.5665	56	4.5775	0.0694	3e-04
407.3785	1.1009	DC	C	Correct	1.09	409.23	0.5171	-1	-0.697	0.697	0.6743	34	4.5775	0.0694	3e-04
411.3984	0.9007	CD	D	Incorrect	0.896	413.0497	0.5171	1	0.3257	0.6743	0.6969	34	4.5775	0.0694	3e-04
415.9187	1.1343	BA	A	Correct	1.125	417.8036	0.517	1	0.17	0.83	0.5659	12	4.5775	0.0694	3e-04
418.9378	0.8007	DC	D	Incorrect	0.789	420.4891	0.517	-1	-0.6969	0.6969	0.6969	34	4.5775	0.0694	3e-04
427.4613	1.0342	EF	E	Correct	1.03	429.2461	0.5171	-1	-0.8409	0.8409	0.5665	56	4.5775	0.0694	3e-04
430.4971	0.8173	EF	E	Correct	0.802	432.0651	0.517	-1	-0.8407	0.8407	0.5665	56	4.5775	0.0694	3e-04
436.0182	0.6672	DC	C	Correct	0.65	437.4361	0.517	-1	-0.6969	0.6969	0.6967	34	4.5775	0.0694	3e-04
440.0381	0.8007	EF	F	Incorrect	0.782	441.5727	0.5171	-1	-0.5665	0.5665	0.8404	56	4.5775	0.0694	3e-04
447.5776	0.8673	FE	E	Correct	0.849	449.1955	0.5171	1	0.1596	0.8404	0.5664	56	4.5775	0.0694	3e-04
451.5975	0.884	FE	E	Correct	0.881	453.2321	0.5171	-1	-0.8515	0.8515	0.5664	56	4.5775	0.0694	3e-04
454.6332	1.0843	DC	C	Correct	1.076	456.4681	0.517	1	0.3033	0.6967	0.6967	34	4.5775	0.0694	3e-04
459.1536	0.7506	FE	E	Correct	0.748	460.6548	0.5171	-1	-0.8513	0.8513	0.5664	56	4.5775	0.0694	3e-04
464.1743	0.7673	DC	C	Correct	0.752	465.6922	0.517	1	0.2823	0.7177	0.6967	34	4.5775	0.0694	3e-04
466.7097	0.8506	DC	C	Correct	0.848	468.3109	0.5171	1	0.2627	0.7373	0.6967	34	4.5775	0.0694	3e-04
471.23	0.9674	CD	C	Correct	0.962	472.948	0.5171	1	0.2444	0.7556	0.6967	34	4.5775	0.0694	3e-04
476.2507	0.9674	DC	C	Correct	0.95	477.9687	0.5171	1	0.2275	0.7725	0.6967	34	4.5775	0.0694	3e-04
478.8027	1.0842	FE	E	Correct	1.081	480.6375	0.5171	-1	-0.8511	0.8511	0.5664	56	4.5775	0.0694	3e-04
482.8393	0.834	CD	D	Incorrect	0.821	484.4239	0.5171	-1	-0.6967	0.6967	0.7883	34	4.5775	0.0694	3e-04
487.3596	0.8007	CD	C	Correct	0.795	488.9109	0.5171	1	0.2117	0.7883	0.6965	34	4.5775	0.0694	3e-04
491.3795	1.1009	CD	C	Correct	1.09	493.231	0.5171	-1	-0.803	0.803	0.6965	34	4.5775	0.0694	3e-04
495.3994	0.9008	BA	A	Correct	0.894	497.0508	0.5171	1	0.1582	0.8418	0.5659	12	4.5775	0.0694	3e-04
499.9198	1.1676	AB	A	Correct	1.164	501.838	0.5171	1	0.1472	0.8528	0.5659	12	4.5775	0.0694	3e-04
502.9555	1.1009	BA	A	Correct	1.095	504.807	0.5171	-1	-0.863	0.863	0.5659	12	4.5775	0.0694	3e-04
506.9921	0.9675	EF	E	Correct	0.958	508.7102	0.5171	1	0.1491	0.8509	0.5664	56	4.5775	0.0694	3e-04
514.7484	1.1342	FE	E	Correct	1.12	516.6332	0.5171	1	0.1388	0.8612	0.5664	56	4.5775	0.0694	3e-04
519.2687	1.0342	AB	A	Correct	1.024	521.0535	0.517	1	0.1372	0.8628	0.5659	12	4.5775	0.0694	3e-04
524.2894	0.9341	CD	C	Correct	0.923	525.9741	0.5171	1	0.1972	0.8028	0.6965	34	4.5775	0.0694	3e-04
527.8089	1.0342	EF	E	Correct	1.026	529.5937	0.5171	1	0.1291	0.8709	0.5664	56	4.5775	0.0694	3e-04
530.8447	0.7673	DC	C	Correct	0.752	532.3626	0.5171	1	0.1835	0.8165	0.6965	34	4.5775	0.0694	3e-04
534.8813	1.1843	AB	A	Correct	1.179	536.8162	0.517	1	0.1277	0.8723	0.5659	12	4.5775	0.0694	3e-04
542.9211	0.9674	CD	C	Correct	0.961	544.6391	0.5171	1	0.1708	0.8292	0.6965	34	4.5775	0.0694	3e-04
547.4414	0.884	EF	E	Correct	0.879	549.076	0.5171	1	0.1202	0.8798	0.5664	56	4.5775	0.0694	3e-04
552.4621	0.8507	AB	A	Correct	0.834	554.0634	0.5171	-1	-0.8812	0.8812	0.5659	12	4.5775	0.0694	3e-04
554.9975	1.1509	AB	A	Correct	1.146	556.899	0.5171	-1	-0.8809	0.8809	0.5659	12	4.5775	0.0694	3e-04
560.0182	0.7506	CD	C	Correct	0.734	561.5194	0.5171	1	0.1589	0.8411	0.6965	34	4.5775	0.0694	3e-04
563.5377	0.8841	DC	C	Correct	0.88	565.1724	0.517	1	0.1479	0.8521	0.6965	34	4.5775	0.0694	3e-04
572.5616	1.0342	BA	A	Correct	1.029	574.3464	0.5171	1	0.1193	0.8807	0.5659	12	4.5775	0.0694	3e-04
575.097	0.8841	DC	C	Correct	0.872	576.7317	0.5171	1	0.1376	0.8624	0.6965	34	4.5775	0.0694	3e-04
588.4411	0.8674	EF	F	Incorrect	0.857	590.0591	0.5171	1	0.4336	0.5664	0.8882	56	4.5775	0.0694	3e-04
592.9614	0.734	EF	E	Correct	0.726	594.446	0.517	-1	-0.8882	0.8882	0.5965	56	4.5775	0.0694	3e-04
604.7876	1.1009	AB	A	Correct	1.087	606.6391	0.5171	1	0.111	0.889	0.5659	12	4.5775	0.0694	3e-04
607.8067	0.7506	BA	A	Correct	0.744	609.3079	0.5171	1	0.1033	0.8967	0.5659	12	4.5775	0.0694	3e-04
611.3429	0.8841	DC	C	Correct	0.869	612.9776	0.517	1	0.1281	0.8719	0.6965	34	4.5775	0.0694	3e-04
616.3636	0.8174	DC	C	Correct	0.814	617.9316	0.517	1	0.1192	0.8808	0.6965	34	4.5775	0.0694	3e-04
620.3835	0.8174	CD	C	Correct	0.8	621.9515	0.517	1	0.1109	0.8891	0.6965	34	4.5775	0.0694	3e-04
624.9038	0.9842	CD	C	Correct	0.977	626.6386	0.5171	-1	-0.8968	0.8968	0.6965	34	4.5775	0.0694	3e-04
632.4266	0.9007	FE	F	Incorrect	0.898	634.0779	0.5171	-1	-0.5965	0.5965	0.8879	56	4.5775	0.0694	3e-04
640.9501	1.0008	BA	A	Correct	0.985	642.7015	0.5171	1	0.0961	0.9039	0.5659	12	4.5775	0.0694	3e-04
643.4855	0.7673	DC	C	Correct	0.752	645.0034	0.5171	1	0.1034	0.8966	0.6965	34	4.5775	0.0694	3e-04
648.5062	0.8507	FE	F	Incorrect	0.836	650.1075	0.5171	-1	-0.5963	0.5963	0.8879	56	4.5775	0.0694	3e-04
653.0265	1.1676	AB	A	Correct	1.155	654.9447	0.5171	-1	-0.9105	0.9105	0.5659	12	4.5775	0.0694	3e-04
656.546	0.834	AB	A	Correct	0.821	658.1306	0.5171	-1	-0.9103	0.9103	0.5659	12	4.5775	0.0694	3e-04
