onset	duration	Pair	Choice	Response	RT	Feedback_Onset	Feedback_duration	Balance	RPE	Q_chosen	Q_notchosen	npair	Beta_Q	alpha_gain	alpha_loss
0.05	1.3678	BA	B	Incorrect	1.355	1.718	0.5171	-1	-0.8085	0.8085	1	12	5.5889	0.3813	0
4.5704	0.834	DC	C	Correct	0.824	5.7046	0.5171	-1	-1	1	0.5	34	5.5889	0.3813	0
8.5903	1.8014	EF	F	Incorrect	1.797	10.692	0.5171	-1	-0.9932	0.9932	0.9719	56	5.5889	0.3813	0
13.611	0.884	DC	C	Correct	0.879	14.7904	0.5053	1	0	1	0.5	34	5.5889	0.3813	0
16.1464	1.3844	EF	E	Correct	1.381	17.8311	0.5171	-1	-0.9719	0.9719	0.9932	56	5.5889	0.3813	0
20.183	0.8006	CD	C	Correct	0.788	21.2839	0.5171	1	0	1	0.5	34	5.5889	0.3813	0
25.2037	0.6839	CD	C	Correct	0.67	26.1878	0.5171	1	0	1	0.5	34	5.5889	0.3813	0
28.2395	1.4845	BA	A	Correct	1.476	30.0243	0.5171	1	0	1	0.8084	12	5.5889	0.3813	0
33.7606	1.5179	EF	E	Correct	1.504	35.5788	0.5171	1	0.0281	0.9719	0.9932	56	5.5889	0.3813	0
37.7806	1.6346	FE	F	Incorrect	1.624	39.7155	0.517	-1	-0.9932	0.9932	0.9826	56	5.5889	0.3813	0
41.3001	1.5179	EF	E	Correct	1.502	43.1182	0.5171	1	0.0174	0.9826	0.9932	56	5.5889	0.3813	0
45.32	0.9174	FE	E	Correct	0.908	46.5376	0.5171	1	0.0108	0.9892	0.9932	56	5.5889	0.3813	0
48.8395	1.4679	BA	B	Incorrect	1.46	50.6076	0.5171	-1	-0.8084	0.8084	1	12	5.5889	0.3813	0
53.3598	1.2844	EF	E	Correct	1.28	54.9444	0.5171	-1	-0.9933	0.9933	0.9932	56	5.5889	0.3813	0
57.8802	0.9507	DC	C	Correct	0.943	59.1312	0.517	1	0	1	0.5	34	5.5889	0.3813	0
64.4188	1.4511	FE	F	Incorrect	1.445	66.1702	0.5171	-1	-0.9932	0.9932	0.9933	56	5.5889	0.3813	0
69.4395	1.9015	CD	C	Correct	1.887	71.6413	0.5171	-1	-1	1	0.5	34	5.5889	0.3813	0
73.4594	0.6672	CD	C	Correct	0.655	74.4269	0.5171	1	0	1	0.5	34	5.5889	0.3813	0
77.4793	2.0017	FE	F	Incorrect	1.988	79.7812	0.5171	-1	-0.9932	0.9932	0.9933	56	5.5889	0.3813	0
85.0021	0.7339	DC	C	Correct	0.731	86.0363	0.5171	1	0	1	0.5	34	5.5889	0.3813	0
89.022	1.8348	BA	B	Incorrect	1.833	91.1571	0.5171	-1	-0.8084	0.8084	1	12	5.5889	0.3813	0
93.0253	1.1175	DC	D	Incorrect	1.107	94.4431	0.5171	1	0.5	0.5	1	34	5.5889	0.3813	0
96.5615	0.6838	DC	C	Correct	0.678	97.5456	0.5171	1	0	1	0.6907	34	5.5889	0.3813	0
102.0826	0.834	CD	C	Correct	0.822	103.2168	0.5171	-1	-1	1	0.6907	34	5.5889	0.3813	0
109.1049	1.1843	EF	E	Correct	1.167	110.5895	0.517	1	0.0067	0.9933	0.9932	56	5.5889	0.3813	0
114.1257	1.5179	EF	E	Correct	1.509	115.9438	0.5171	1	0.0041	0.9959	0.9932	56	5.5889	0.3813	0
116.661	3.9866	EF	n/a	omission	0	120.9478	0.5171	0	0	0	0	0	5.5889	0.3813	0
124.6675	0.784	DC	C	Correct	0.777	125.7517	0.5171	1	0	1	0.6907	34	5.5889	0.3813	0
128.7041	0.9675	EF	F	Incorrect	0.965	129.9718	0.5171	1	0.0068	0.9932	0.9974	56	5.5889	0.3813	0
133.2244	1.1009	AB	A	Correct	1.09	134.6256	0.5171	-1	-1	1	0.8084	12	5.5889	0.3813	0
137.7448	1.1342	CD	C	Correct	1.126	139.1793	0.517	-1	-1	1	0.6907	34	5.5889	0.3813	0
142.2651	1.251	BA	A	Correct	1.236	143.8164	0.517	1	0	1	0.8084	12	5.5889	0.3813	0
145.7846	1.0842	CD	C	Correct	1.066	147.1691	0.517	-1	-1	1	0.6907	34	5.5889	0.3813	0
150.3049	0.8674	DC	C	Correct	0.849	151.4559	0.517	-1	-1	1	0.6907	34	5.5889	0.3813	0
153.3407	0.6339	CD	C	Correct	0.621	154.2748	0.5171	-1	-0.9999	0.9999	0.6907	34	5.5889	0.3813	0
157.3606	2.9858	AB	A	Correct	2.969	160.6466	0.2336	1	0	1	0.8084	12	5.5889	0.3813	0
161.3806	1.7514	BA	A	Correct	1.745	163.4322	0.5171	1	0	1	0.8084	12	5.5889	0.3813	0
164.9168	1.3844	EF	F	Incorrect	1.373	166.6015	0.517	-1	-0.9958	0.9958	0.9974	56	5.5889	0.3813	0
169.4371	0.7673	DC	C	Correct	0.755	170.5046	0.5171	1	1e-04	0.9999	0.6907	34	5.5889	0.3813	0
177.4602	1.1176	AB	A	Correct	1.113	178.8781	0.517	1	0	1	0.8084	12	5.5889	0.3813	0
181.4802	2.4353	EF	E	Correct	2.426	184.2157	0.5171	1	0.0026	0.9974	0.9958	56	5.5889	0.3813	0
186.5009	1.1509	BA	A	Correct	1.135	187.9521	0.517	1	0	1	0.8084	12	5.5889	0.3813	0
189.52	0.834	BA	A	Correct	0.822	190.6542	0.5171	1	0	1	0.8084	12	5.5889	0.3813	0
193.5399	0.8507	EF	F	Incorrect	0.838	194.6908	0.5171	-1	-0.9958	0.9958	0.9984	56	5.5889	0.3813	0
197.5598	0.9008	AB	A	Correct	0.883	198.7608	0.5171	1	0	1	0.8084	12	5.5889	0.3813	0
201.096	1.1009	BA	A	Correct	1.098	202.4972	0.517	1	0	1	0.8084	12	5.5889	0.3813	0
206.1168	0.934	FE	F	Incorrect	0.921	207.3511	0.5171	1	0.0043	0.9957	0.9984	56	5.5889	0.3813	0
210.6371	1.1843	CD	C	Correct	1.176	212.1216	0.5171	1	0	1	0.6907	34	5.5889	0.3813	0
214.1566	0.9007	CD	C	Correct	0.883	215.3576	0.517	-1	-1	1	0.6907	34	5.5889	0.3813	0
217.2091	1.4678	EF	F	Incorrect	1.462	218.9772	0.517	-1	-0.9974	0.9974	0.9984	56	5.5889	0.3813	0
222.7302	1.2176	AB	B	Incorrect	1.203	224.2481	0.5171	-1	-0.8084	0.8084	1	12	5.5889	0.3813	0
225.7493	1.4011	BA	A	Correct	1.397	227.4507	0.5171	1	0	1	0.8084	12	5.5889	0.3813	0
229.7692	0.9341	CD	C	Correct	0.918	231.0036	0.517	1	0	1	0.6907	34	5.5889	0.3813	0
234.79	0.6505	CD	C	Correct	0.646	235.7407	0.5171	1	0	1	0.6907	34	5.5889	0.3813	0
238.8099	1.2176	FE	F	Incorrect	1.206	240.3278	0.5171	1	0.0026	0.9974	0.9984	56	5.5889	0.3813	0
242.8298	1.4845	BA	B	Incorrect	1.476	244.6146	0.5171	-1	-0.8084	0.8084	1	12	5.5889	0.3813	0
245.3652	1.2843	DC	C	Correct	1.274	246.9498	0.5171	1	0	1	0.6907	34	5.5889	0.3813	0
250.8863	0.784	FE	F	Incorrect	0.772	251.9705	0.5171	-1	-0.9984	0.9984	0.9984	56	5.5889	0.3813	0
254.9062	1.568	EF	F	Incorrect	1.566	256.7744	0.5171	-1	-0.9983	0.9983	0.9984	56	5.5889	0.3813	0
257.9253	1.0509	EF	F	Incorrect	1.038	259.2764	0.5171	1	0.0017	0.9983	0.9984	56	5.5889	0.3813	0
261.9453	0.9007	AB	A	Correct	0.897	263.1462	0.5171	1	0	1	0.8084	12	5.5889	0.3813	0
265.4815	1.7681	BA	A	Correct	1.764	267.5498	0.5171	1	0	1	0.8084	12	5.5889	0.3813	0
270.0018	1.6847	FE	F	Incorrect	1.673	271.9867	0.5171	1	0.001	0.999	0.9984	56	5.5889	0.3813	0
275.0225	1.1843	DC	C	Correct	1.176	276.507	0.5171	1	0	1	0.6907	34	5.5889	0.3813	0
278.0416	1.201	EF	F	Incorrect	1.186	279.5428	0.5171	-1	-0.9994	0.9994	0.9984	56	5.5889	0.3813	0
283.0623	0.6339	CD	C	Correct	0.63	283.9964	0.5171	-1	-1	1	0.6907	34	5.5889	0.3813	0
285.5977	1.3011	DC	C	Correct	1.294	287.199	0.5171	1	0	1	0.6907	34	5.5889	0.3813	0
290.1181	0.9007	AB	A	Correct	0.886	291.319	0.5171	1	0	1	0.8084	12	5.5889	0.3813	0
294.138	1.0008	DC	C	Correct	0.992	295.439	0.5171	1	0	1	0.6907	34	5.5889	0.3813	0
297.6742	0.9174	FE	F	Incorrect	0.905	298.8918	0.5171	-1	-0.9993	0.9993	0.9984	56	5.5889	0.3813	0
302.6949	1.1676	AB	B	Incorrect	1.159	304.1628	0.517	-1	-0.8084	0.8084	1	12	5.5889	0.3813	0
306.2144	0.5671	CD	C	Correct	0.55	307.0818	0.5171	1	0	1	0.6907	34	5.5889	0.3813	0
311.2351	0.7506	AB	A	Correct	0.738	312.286	0.5171	1	0	1	0.8084	12	5.5889	0.3813	0
314.2542	0.8674	DC	C	Correct	0.857	315.4219	0.517	1	0	1	0.6907	34	5.5889	0.3813	0
319.275	0.9007	AB	A	Correct	0.883	320.4759	0.5171	1	0	1	0.8084	12	5.5889	0.3813	0
321.827	0.834	FE	F	Incorrect	0.826	322.9613	0.5171	1	7e-04	0.9993	0.9984	56	5.5889	0.3813	0
326.3474	1.5345	BA	A	Correct	1.519	328.1822	0.5171	-1	-1	1	0.8084	12	5.5889	0.3813	0
334.8876	1.7347	AB	B	Incorrect	1.732	336.9226	0.5171	-1	-0.8084	0.8084	1	12	5.5889	0.3813	0
338.4071	1.3511	DC	C	Correct	1.337	340.0585	0.517	1	0	1	0.6907	34	5.5889	0.3813	0
341.9433	2.0016	EF	E	Correct	1.988	344.2452	0.5171	-1	-0.9984	0.9984	0.9996	56	5.5889	0.3813	0
345.9799	1.8515	EF	E	Correct	1.839	348.1317	0.517	-1	-0.9984	0.9984	0.9996	56	5.5889	0.3813	0
350.5002	1.9683	CD	C	Correct	1.954	352.7687	0.5171	-1	-1	1	0.6907	34	5.5889	0.3813	0
354.5202	1.4178	BA	B	Incorrect	1.414	356.2382	0.5171	-1	-0.8084	0.8084	1	12	5.5889	0.3813	0
358.5401	1.8348	FE	E	Correct	1.833	360.6751	0.5171	1	0.0016	0.9984	0.9996	56	5.5889	0.3813	0
363.5441	2.5187	CD	n/a	omission	0	366.3631	0.5171	0	0	0	0	0	5.5889	0.3813	0
369.5657	1.3677	DC	C	Correct	1.36	371.2337	0.5171	-1	-1	1	0.6907	34	5.5889	0.3813	0
373.0852	2.0183	FE	E	Correct	2.004	375.4037	0.5171	1	0.001	0.999	0.9996	56	5.5889	0.3813	0
381.6087	0.8507	DC	C	Correct	0.842	382.7597	0.5171	1	0	1	0.6907	34	5.5889	0.3813	0
384.6445	3.9866	FE	n/a	omission	0	388.9313	0.5171	0	0	0	0	0	5.5889	0.3813	0
393.1347	0.8507	EF	E	Correct	0.844	394.2857	0.5171	1	6e-04	0.9994	0.9996	56	5.5889	0.3813	0
397.6551	1.5012	AB	A	Correct	1.485	399.4565	0.5171	1	0	1	0.8084	12	5.5889	0.3813	0
402.1754	2.502	BA	n/a	omission	0	404.9776	0.5171	0	0	0	0	0	5.5889	0.3813	0
407.1961	0.1501	AB	A	Correct	0.135	407.6465	0.5171	1	0	1	0.8084	12	5.5889	0.3813	0
412.7172	1.1176	DC	C	Correct	1.106	414.1351	0.517	1	0	1	0.6907	34	5.5889	0.3813	0
415.2526	3.9866	EF	n/a	omission	0	419.5394	0.5171	0	0	0	0	0	5.5889	0.3813	0
424.7436	1.0342	BA	B	Incorrect	1.031	426.0781	0.517	1	0.1916	0.8084	1	12	5.5889	0.3813	0
428.2632	1.1342	AB	A	Correct	1.118	429.6977	0.517	-1	-1	1	0.8814	12	5.5889	0.3813	0
432.2831	0.9507	DC	C	Correct	0.944	433.5341	0.5171	-1	-1	1	0.6907	34	5.5889	0.3813	0
436.8034	1.0008	EF	F	Incorrect	0.998	438.1045	0.517	-1	-0.9996	0.9996	0.9996	56	5.5889	0.3813	0
440.3229	1.0675	EF	F	Incorrect	1.049	441.6907	0.5171	1	4e-04	0.9996	0.9996	56	5.5889	0.3813	0
444.8432	0.7673	FE	F	Incorrect	0.759	445.9108	0.5171	-1	-0.9997	0.9997	0.9996	56	5.5889	0.3813	0
447.8623	0.8174	DC	C	Correct	0.804	448.9799	0.5171	-1	-1	1	0.6907	34	5.5889	0.3813	0
452.3827	0.2835	AB	A	Correct	0.279	452.9665	0.5171	1	0	1	0.8814	12	5.5889	0.3813	0
456.903	2.502	BA	n/a	omission	0	459.7053	0.517	0	0	0	0	0	5.5889	0.3813	0
463.4083	1.2009	EF	F	Incorrect	1.184	464.9095	0.5171	-1	-0.9997	0.9997	0.9996	56	5.5889	0.3813	0
470.931	0.9007	DC	C	Correct	0.888	472.132	0.5171	-1	-1	1	0.6907	34	5.5889	0.3813	0
473.9668	0.7339	DC	C	Correct	0.72	475.001	0.5171	1	1e-04	0.9999	0.6907	34	5.5889	0.3813	0
478.9875	0.7173	DC	C	Correct	0.706	480.005	0.5171	-1	-1	1	0.6907	34	5.5889	0.3813	0
483.0075	1.0341	CD	C	Correct	1.017	484.3419	0.517	1	1e-04	0.9999	0.6907	34	5.5889	0.3813	0
490.5302	0.8507	CD	C	Correct	0.845	491.6811	0.5171	1	0	1	0.6907	34	5.5889	0.3813	0
494.0664	1.5513	BA	B	Incorrect	1.539	495.9179	0.5171	-1	-0.8814	0.8814	1	12	5.5889	0.3813	0
502.59	0.9841	AB	B	Incorrect	0.97	503.8743	0.5171	-1	-0.8814	0.8814	1	12	5.5889	0.3813	0
506.6099	2.0016	BA	A	Correct	1.989	508.9117	0.5171	1	0	1	0.8814	12	5.5889	0.3813	0
511.6306	1.1676	CD	D	Incorrect	1.155	513.0985	0.517	1	0.3093	0.6907	1	34	5.5889	0.3813	0
514.6497	1.0175	DC	C	Correct	1.001	515.9674	0.5171	1	0	1	0.8086	34	5.5889	0.3813	0
519.17	2.3186	BA	B	Incorrect	2.3	521.7721	0.4337	-1	-0.8814	0.8814	1	12	5.5889	0.3813	0
523.6904	0.8507	DC	C	Correct	0.843	524.8413	0.5171	1	0	1	0.8086	34	5.5889	0.3813	0
526.2258	1.0842	DC	C	Correct	1.081	527.6102	0.5171	1	0	1	0.8086	34	5.5889	0.3813	0
531.7469	1.6513	AB	A	Correct	1.647	533.6985	0.5171	1	0	1	0.8814	12	5.5889	0.3813	0
534.766	3.5028	EF	n/a	omission	0	538.5691	0.5171	0	0	0	0	0	5.5889	0.3813	0
542.2721	1.8014	FE	E	Correct	1.799	544.3738	0.5171	1	4e-04	0.9996	0.9997	56	5.5889	0.3813	0
550.2952	1.1009	CD	C	Correct	1.095	551.6964	0.517	1	0	1	0.8086	34	5.5889	0.3813	0
554.3151	1.3511	EF	E	Correct	1.335	555.9665	0.5171	1	2e-04	0.9998	0.9997	56	5.5889	0.3813	0
562.3383	0.7172	EF	F	Incorrect	0.709	563.3558	0.5171	1	3e-04	0.9997	0.9999	56	5.5889	0.3813	0
566.8586	3.0025	FE	n/a	omission	0	570.1613	0.5171	0	0	0	0	0	5.5889	0.3813	0
572.8802	1.2176	AB	A	Correct	1.212	574.3981	0.517	1	0	1	0.8814	12	5.5889	0.3813	0
578.4013	0.9007	DC	C	Correct	0.898	579.6023	0.5171	1	0	1	0.8086	34	5.5889	0.3813	0
582.4212	2.2018	EF	F	Incorrect	2.198	584.9232	0.0167	-1	-0.9998	0.9998	0.9999	56	5.5889	0.3813	0
584.9566	0.7673	DC	C	Correct	0.763	586.0241	0.5171	-1	-1	1	0.8086	34	5.5889	0.3813	0
589.9773	3.0025	BA	n/a	omission	0	593.28	0.5171	0	0	0	0	0	5.5889	0.3813	0
596.4826	0.6338	CD	C	Correct	0.62	597.4167	0.5171	1	0	1	0.8086	34	5.5889	0.3813	0
601.0029	1.1343	EF	F	Incorrect	1.119	602.4374	0.5171	1	2e-04	0.9998	0.9999	56	5.5889	0.3813	0
604.0387	1.6013	CD	C	Correct	1.591	605.9402	0.5171	1	0	1	0.8086	34	5.5889	0.3813	0
608.0753	1.7681	EF	E	Correct	1.755	610.1436	0.5171	-1	-0.9999	0.9999	0.9999	56	5.5889	0.3813	0
613.5964	0.784	DC	C	Correct	0.772	614.6806	0.5171	1	0	1	0.8086	34	5.5889	0.3813	0
617.116	2.0516	FE	F	Incorrect	2.035	619.4679	0.517	1	1e-04	0.9999	0.9998	56	5.5889	0.3813	0
620.1517	0.9008	BA	A	Correct	0.892	621.3527	0.5171	1	0	1	0.8814	12	5.5889	0.3813	0
628.1916	1.5679	EF	E	Correct	1.55	630.0598	0.517	1	2e-04	0.9998	0.9999	56	5.5889	0.3813	0
633.7127	1.2343	AB	A	Correct	1.225	635.2473	0.5171	1	0	1	0.8814	12	5.5889	0.3813	0
637.7326	1.4846	DC	C	Correct	1.47	639.5174	0.5171	1	0	1	0.8086	34	5.5889	0.3813	0
640.7517	1.2511	AB	A	Correct	1.237	642.303	0.5171	1	0	1	0.8814	12	5.5889	0.3813	0
645.7725	1.0675	EF	E	Correct	1.06	647.1402	0.5171	1	1e-04	0.9999	0.9999	56	5.5889	0.3813	0
648.7916	0.9341	DC	C	Correct	0.917	650.0259	0.5171	1	0	1	0.8086	34	5.5889	0.3813	0
652.3278	2.4353	AB	A	Correct	2.417	655.0633	0.5171	1	0	1	0.8814	12	5.5889	0.3813	0
657.8489	1.1676	BA	B	Incorrect	1.163	659.3168	0.517	-1	-0.8814	0.8814	1	12	5.5889	0.3813	0
661.3684	3.0025	AB	n/a	omission	0	664.6711	0.5171	0	0	0	0	0	5.5889	0.3813	0
667.8737	1.4845	FE	E	Correct	1.466	669.6418	0.5171	-1	-0.9999	0.9999	0.9999	56	5.5889	0.3813	0
672.394	3.0191	CD	n/a	omission	0	675.7134	0.517	0	0	0	0	0	5.5889	0.3813	0
678.4322	1.5346	BA	B	Incorrect	1.521	680.267	0.5171	-1	-0.8814	0.8814	1	12	5.5889	0.3813	0
