onset	duration	RT	Trial_type	Response	SSD
0.0699	0.5171	1108	Go	correct	n/a
5.0573	0.5171	858	Go	correct	n/a
8.0764	0.5171	687	Go	correct	n/a
17.067	0.5171	703	Go	correct	n/a
20.0861	0.5171	701	Go	correct	n/a
25.5739	0.5171	554	Go	correct	n/a
29.5771	0.5171	593	Go	correct	n/a
33.0799	0.5171	0	Stop	succesful_stop	200
36.5828	0.5171	719	Go	Incorrect	n/a
40.1023	0.5171	770	Stop	Failed_stop	250
48.5925	0.5171	692	Go	correct	n/a
52.5957	0.5171	0	Stop	succesful_stop	300
57.0994	0.5171	0	Stop	succesful_stop	350
60.1185	0.5171	0	Stop	succesful_stop	400
65.6063	0.517	661	Stop	Failed_stop	450
69.1091	0.5171	0	Stop	succesful_stop	500
73.1123	0.5171	0	Stop	succesful_stop	550
77.616	0.5171	770	Stop	Failed_stop	600
84.1379	0.5171	855	Go	correct	n/a
88.1412	0.517	536	Stop	Failed_stop	650
92.6281	0.5171	565	Go	correct	n/a
96.6314	0.517	527	Go	Incorrect	n/a
100.6346	0.5171	712	Go	correct	n/a
104.1541	0.5171	763	Go	correct	n/a
108.6411	0.5171	923	Go	correct	n/a
113.1447	0.5171	569	Go	correct	n/a
116.6476	0.517	776	Go	correct	n/a
121.6516	0.5171	559	Stop	Failed_stop	700
125.6548	0.5171	622	Go	correct	n/a
129.6581	0.5171	692	Go	correct	n/a
133.6613	0.5171	733	Stop	Failed_stop	750
137.1642	0.517	683	Go	correct	n/a
141.1674	0.5171	736	Stop	Failed_stop	800
144.6702	0.5171	576	Go	correct	n/a
149.6743	0.5171	596	Stop	Failed_stop	800
153.6775	0.5171	629	Go	correct	n/a
157.6808	0.517	541	Go	correct	n/a
161.1836	0.5171	642	Go	correct	n/a
165.1868	0.5171	580	Go	correct	n/a
168.2059	0.5171	533	Stop	Failed_stop	750
173.1933	0.5171	621	Go	correct	n/a
177.1965	0.5171	588	Go	correct	n/a
180.6994	0.5171	714	Go	Incorrect	n/a
184.7026	0.5171	883	Go	correct	n/a
188.2221	0.5171	687	Go	correct	n/a
192.7091	0.5171	665	Stop	Failed_stop	700
197.7131	0.5171	614	Stop	Failed_stop	650
201.7164	0.5171	573	Go	correct	n/a
209.7229	0.517	759	Stop	Failed_stop	600
212.7253	0.5171	648	Go	correct	n/a
216.7285	0.5171	711	Go	correct	n/a
221.2322	0.5171	817	Stop	Failed_stop	550
225.2354	0.5171	740	Go	correct	n/a
229.2387	0.517	574	Go	correct	n/a
237.2451	0.5171	687	Go	correct	n/a
241.2484	0.5171	605	Go	correct	n/a
245.752	0.5171	731	Go	correct	n/a
248.2707	0.5171	634	Go	correct	n/a
253.7585	0.5171	730	Go	correct	n/a
256.2772	0.5171	781	Go	Incorrect	n/a
261.2646	0.5171	1045	Stop	Failed_stop	500
268.2869	0.5171	660	Go	correct	n/a
272.7739	0.5171	851	Go	Incorrect	n/a
276.2934	0.5171	1253	Go	correct	n/a
281.7812	0.517	714	Go	correct	n/a
285.284	0.5171	800	Go	correct	n/a
289.2872	0.5171	688	Go	correct	n/a
293.2905	0.5171	0	Stop	succesful_stop	450
296.3096	0.5171	0	Stop	succesful_stop	400
305.3002	0.5171	0	Stop	succesful_stop	350
308.3193	0.5171	0	Stop	succesful_stop	300
317.3099	0.5171	767	Go	correct	n/a
320.329	0.5171	457	Stop	Failed_stop	250
325.8168	0.5171	645	Go	correct	n/a
329.82	0.5171	724	Go	correct	n/a
336.8257	0.5171	0	Stop	succesful_stop	200
341.3293	0.5171	742	Go	correct	n/a
344.8322	0.5171	348	Stop	Failed_stop	150
349.8362	0.5171	687	Go	correct	n/a
352.8387	0.517	0	Stop	succesful_stop	100
356.3582	0.5171	0	Stop	succesful_stop	50
360.8451	0.5171	676	Go	correct	n/a
365.3488	0.5171	0	Stop	succesful_stop	50
369.8524	0.5171	555	Go	correct	n/a
373.8557	0.5171	778	Go	correct	n/a
377.8589	0.5171	764	Go	correct	n/a
381.3617	0.5171	590	Go	correct	n/a
385.8654	0.5171	0	Stop	succesful_stop	50
388.3841	0.5171	0	Go	omission	n/a
394.8727	0.5171	875	Go	correct	n/a
399.3763	0.5171	617	Go	correct	n/a
403.88	0.517	0	Stop	succesful_stop	50
406.8824	0.5171	589	Go	correct	n/a
410.8856	0.5171	485	Go	correct	n/a
415.8897	0.5171	547	Go	correct	n/a
419.3925	0.5171	669	Go	correct	n/a
422.4116	0.5171	873	Go	correct	n/a
427.399	0.5171	0	Stop	succesful_stop	100
430.9018	0.5171	0	Stop	succesful_stop	150
435.4055	0.517	647	Go	correct	n/a
439.9091	0.5171	747	Go	correct	n/a
447.4152	0.5171	721	Stop	Failed_stop	200
451.4184	0.5171	486	Go	correct	n/a
455.9221	0.517	531	Go	correct	n/a
458.4408	0.5171	747	Go	correct	n/a
463.4281	0.5171	0	Stop	succesful_stop	250
466.931	0.5171	827	Go	correct	n/a
471.935	0.5171	896	Stop	Failed_stop	300
474.9374	0.5171	971	Go	correct	n/a
479.4411	0.5171	965	Go	correct	n/a
482.9439	0.5171	711	Go	correct	n/a
486.4634	0.5171	663	Go	correct	n/a
490.9504	0.5171	627	Go	correct	n/a
495.9544	0.5171	0	Stop	succesful_stop	350
498.9569	0.5171	675	Go	correct	n/a
503.9609	0.5171	766	Go	correct	n/a
507.9642	0.5171	1653	Go	Incorrect	n/a
510.9666	0.5171	749	Go	correct	n/a
514.4861	0.5171	995	Go	correct	n/a
519.4735	0.5171	1445	Go	correct	n/a
523.4767	0.5171	1133	Go	Incorrect	n/a
526.9796	0.517	691	Go	correct	n/a
530.9828	0.5171	566	Go	correct	n/a
535.9868	0.5171	995	Go	correct	n/a
539.4897	0.5171	836	Go	correct	n/a
543.9933	0.5171	510	Go	correct	n/a
547.4962	0.517	636	Stop	Failed_stop	400
551.9998	0.5171	0	Stop	succesful_stop	450
555.5026	0.5171	604	Stop	Failed_stop	500
564.0095	0.5171	886	Go	correct	n/a
567.5123	0.5171	647	Stop	Failed_stop	550
570.5315	0.517	633	Go	correct	n/a
576.0192	0.5171	660	Stop	Failed_stop	600
583.0249	0.5171	1506	Stop	Failed_stop	600
590.5476	0.5171	1092	Go	Incorrect	n/a
595.535	0.5171	611	Go	correct	n/a
599.0379	0.517	618	Go	correct	n/a
604.0419	0.5171	717	Go	correct	n/a
606.5606	0.5171	681	Stop	Failed_stop	550
610.5638	0.5171	877	Go	correct	n/a
615.0508	0.5171	1008	Go	correct	n/a
620.0549	0.517	659	Go	correct	n/a
628.0613	0.5171	888	Stop	Failed_stop	500
632.0646	0.5171	595	Go	correct	n/a
635.067	0.5171	710	Stop	Failed_stop	450
638.5865	0.5171	714	Go	correct	n/a
648.0775	0.5171	533	Stop	Failed_stop	400
650.5962	0.5171	579	Stop	Failed_stop	350
655.0832	0.5171	0	Stop	succesful_stop	300
659.0864	0.5171	1263	Go	correct	n/a
