onset	duration	Pair	Response	RT	Cond	Q_choice	Q_notchosen	eQdiff	Rv_diff	Beta_Q	alpha_gain	alpha_loss
1.0334	1.3344	cA	Correct	1.329	ww	0.8673	0.829	0.0383	10	12.2959	0.1267	0.0843
5.0534	1.5012	Fd	inCorrect	1.488	ll	0.5579	0.4143	0.1436	10	12.2959	0.1267	0.0843
8.5734	1.0508	Ae	Correct	1.039	ww	0.8673	0.7107	0.1566	20	12.2959	0.1267	0.0843
12.1094	1.1509	Db	Correct	1.14	ll	0.5579	0.4579	0.1	10	12.2959	0.1267	0.0843
16.1464	1.1009	eA	Correct	1.098	ww	0.8673	0.7107	0.1566	20	12.2959	0.1267	0.0843
21.1664	1.1342	Ef	Correct	1.117	wl.l	0.7107	0.4143	0.2964	20	12.2959	0.1267	0.0843
25.1864	1.0342	Ad	Correct	1.019	wl.u	0.8673	0.5579	0.3094	50	12.2959	0.1267	0.0843
29.2064	0.9841	Cd	Correct	0.981	wl.l	0.829	0.5579	0.2711	40	12.2959	0.1267	0.0843
32.2424	0.7839	Ab	Correct	0.772	wl.l	0.8673	0.4579	0.4094	60	12.2959	0.1267	0.0843
36.7624	0.8673	Cb	Correct	0.856	wl.u	0.829	0.4579	0.3711	50	12.2959	0.1267	0.0843
40.7824	0.8507	Ab	Correct	0.836	wl.l	0.8673	0.4579	0.4094	60	12.2959	0.1267	0.0843
48.3214	0.7339	Af	Correct	0.729	wl.u	0.8673	0.4143	0.453	40	12.2959	0.1267	0.0843
52.8424	0.7506	Af	Correct	0.745	wl.u	0.8673	0.4143	0.453	40	12.2959	0.1267	0.0843
57.3624	1.251	Ed	Correct	1.238	wl.u	0.7107	0.5579	0.1528	30	12.2959	0.1267	0.0843
60.3984	1.1676	Cb	Correct	1.152	wl.u	0.829	0.4579	0.3711	50	12.2959	0.1267	0.0843
65.4194	1.0675	Cd	Correct	1.049	wl.l	0.829	0.5579	0.2711	40	12.2959	0.1267	0.0843
68.4714	1.1676	fE	Correct	1.155	wl.l	0.7107	0.4143	0.2964	20	12.2959	0.1267	0.0843
72.5084	1.1843	dE	Correct	1.174	wl.u	0.7107	0.5579	0.1528	30	12.2959	0.1267	0.0843
76.5444	1.0159	Fb	Correct	1.015	ll	0.4143	0.4579	-0.0436	20	12.2959	0.1267	0.0843
81.5484	1.2343	Cd	Correct	1.231	wl.l	0.829	0.5579	0.2711	40	12.2959	0.1267	0.0843
84.5844	1.0009	Cf	Correct	0.984	wl.u	0.829	0.4143	0.4147	30	12.2959	0.1267	0.0843
89.1044	1.8181	Fd	inCorrect	1.815	ll	0.5579	0.4143	0.1436	10	12.2959	0.1267	0.0843
93.1244	1.0508	dC	Correct	1.042	wl.l	0.829	0.5579	0.2711	40	12.2959	0.1267	0.0843
96.6604	1.1676	Fb	Correct	1.164	ll	0.4143	0.4579	-0.0436	20	12.2959	0.1267	0.0843
101.6814	1.1175	eC	Correct	1.109	ww	0.829	0.7107	0.1183	10	12.2959	0.1267	0.0843
105.2014	1.2843	Ac	Correct	1.274	ww	0.8673	0.829	0.0383	10	12.2959	0.1267	0.0843
109.2214	1.1009	bE	Correct	1.096	wl.u	0.7107	0.4579	0.2528	40	12.2959	0.1267	0.0843
113.7414	0.7506	Ad	Correct	0.744	wl.u	0.8673	0.5579	0.3094	50	12.2959	0.1267	0.0843
117.2604	1.251	dE	Correct	1.249	wl.u	0.7107	0.5579	0.1528	30	12.2959	0.1267	0.0843
121.7644	0.9841	dA	Correct	0.97	wl.u	0.8673	0.5579	0.3094	50	12.2959	0.1267	0.0843
124.8004	1.2844	bF	Correct	1.272	ll	0.4143	0.4579	-0.0436	20	12.2959	0.1267	0.0843
129.3204	1.0842	bF	Correct	1.072	ll	0.4143	0.4579	-0.0436	20	12.2959	0.1267	0.0843
133.3404	0.8173	Cd	Correct	0.799	wl.l	0.829	0.5579	0.2711	40	12.2959	0.1267	0.0843
136.8934	1.0675	bF	Correct	1.058	ll	0.4143	0.4579	-0.0436	20	12.2959	0.1267	0.0843
141.9144	1.3677	Ed	Correct	1.36	wl.u	0.7107	0.5579	0.1528	30	12.2959	0.1267	0.0843
144.9494	0.8506	eA	Correct	0.837	ww	0.8673	0.7107	0.1566	20	12.2959	0.1267	0.0843
152.9894	0.7839	Ab	Correct	0.77	wl.l	0.8673	0.4579	0.4094	60	12.2959	0.1267	0.0843
157.5094	0.6005	Af	Correct	0.586	wl.u	0.8673	0.4143	0.453	40	12.2959	0.1267	0.0843
161.0464	1.0508	Ed	Correct	1.037	wl.u	0.7107	0.5579	0.1528	30	12.2959	0.1267	0.0843
165.5664	0.9507	fE	Correct	0.943	wl.l	0.7107	0.4143	0.2964	20	12.2959	0.1267	0.0843
169.1024	0.9841	Eb	Correct	0.967	wl.u	0.7107	0.4579	0.2528	40	12.2959	0.1267	0.0843
174.1234	1.0508	Ed	Correct	1.035	wl.u	0.7107	0.5579	0.1528	30	12.2959	0.1267	0.0843
178.1434	0.8673	cA	Correct	0.855	ww	0.8673	0.829	0.0383	10	12.2959	0.1267	0.0843
181.1784	1.4012	Fd	inCorrect	1.389	ll	0.5579	0.4143	0.1436	10	12.2959	0.1267	0.0843
186.1994	1.4677	Fd	Correct	1.463	ll	0.4143	0.5579	-0.1436	10	12.2959	0.1267	0.0843
189.2354	1.0842	Ad	Correct	1.066	wl.u	0.8673	0.5579	0.3094	50	12.2959	0.1267	0.0843
193.2724	0.734	eC	Correct	0.729	ww	0.829	0.7107	0.1183	10	12.2959	0.1267	0.0843
197.3084	0.7006	bC	Correct	0.69	wl.u	0.829	0.4579	0.3711	50	12.2959	0.1267	0.0843
201.8284	0.7339	cA	Correct	0.725	ww	0.8673	0.829	0.0383	10	12.2959	0.1267	0.0843
206.3494	0.834	Af	Correct	0.829	wl.u	0.8673	0.4143	0.453	40	12.2959	0.1267	0.0843
209.8684	0.8174	Ab	Correct	0.809	wl.l	0.8673	0.4579	0.4094	60	12.2959	0.1267	0.0843
213.8884	0.734	Ab	Correct	0.723	wl.l	0.8673	0.4579	0.4094	60	12.2959	0.1267	0.0843
217.4244	0.6339	Ce	Correct	0.617	ww	0.829	0.7107	0.1183	10	12.2959	0.1267	0.0843
221.4614	0.9341	dA	Correct	0.93	wl.u	0.8673	0.5579	0.3094	50	12.2959	0.1267	0.0843
225.4984	0.8674	Ce	Correct	0.85	ww	0.829	0.7107	0.1183	10	12.2959	0.1267	0.0843
230.0184	1.0509	bD	Correct	1.038	ll	0.5579	0.4579	0.1	10	12.2959	0.1267	0.0843
233.5544	1.0008	Eb	Correct	0.991	wl.u	0.7107	0.4579	0.2528	40	12.2959	0.1267	0.0843
242.5784	0.9675	eA	Correct	0.959	ww	0.8673	0.7107	0.1566	20	12.2959	0.1267	0.0843
250.1014	0.7172	fA	Correct	0.712	wl.u	0.8673	0.4143	0.453	40	12.2959	0.1267	0.0843
258.1244	0.7673	dA	Correct	0.75	wl.u	0.8673	0.5579	0.3094	50	12.2959	0.1267	0.0843
261.6604	1.3177	bC	Correct	1.311	wl.u	0.829	0.4579	0.3711	50	12.2959	0.1267	0.0843
265.6974	1.3844	Fd	Correct	1.372	ll	0.4143	0.5579	-0.1436	10	12.2959	0.1267	0.0843
270.2174	1.1676	fC	Correct	1.149	wl.u	0.829	0.4143	0.4147	30	12.2959	0.1267	0.0843
278.7574	0.884	Ae	Correct	0.866	ww	0.8673	0.7107	0.1566	20	12.2959	0.1267	0.0843
281.8104	1.8849	Fb	Correct	1.868	ll	0.4143	0.4579	-0.0436	20	12.2959	0.1267	0.0843
286.8304	0.7506	fC	Correct	0.743	wl.u	0.829	0.4143	0.4147	30	12.2959	0.1267	0.0843
289.8664	1.5846	fE	Correct	1.568	wl.l	0.7107	0.4143	0.2964	20	12.2959	0.1267	0.0843
294.3864	1.0842	fC	Correct	1.066	wl.u	0.829	0.4143	0.4147	30	12.2959	0.1267	0.0843
302.9274	1.1008	Ef	Correct	1.096	wl.l	0.7107	0.4143	0.2964	20	12.2959	0.1267	0.0843
306.4464	1.351	dF	Correct	1.347	ll	0.4143	0.5579	-0.1436	10	12.2959	0.1267	0.0843
310.4664	1.0675	Cf	Correct	1.051	wl.u	0.829	0.4143	0.4147	30	12.2959	0.1267	0.0843
318.4894	1.5179	Ac	Correct	1.515	ww	0.8673	0.829	0.0383	10	12.2959	0.1267	0.0843
322.5094	1.3511	fC	Correct	1.333	wl.u	0.829	0.4143	0.4147	30	12.2959	0.1267	0.0843
326.5294	1.1009	eA	Correct	1.093	ww	0.8673	0.7107	0.1566	20	12.2959	0.1267	0.0843
330.5494	0.9675	eA	Correct	0.964	ww	0.8673	0.7107	0.1566	20	12.2959	0.1267	0.0843
334.5694	1.0008	Cd	Correct	0.988	wl.l	0.829	0.5579	0.2711	40	12.2959	0.1267	0.0843
338.1054	1.1676	Fb	Correct	1.158	ll	0.4143	0.4579	-0.0436	20	12.2959	0.1267	0.0843
343.1264	1.2844	Fb	Correct	1.28	ll	0.4143	0.4579	-0.0436	20	12.2959	0.1267	0.0843
347.1464	1.0675	Ac	Correct	1.05	ww	0.8673	0.829	0.0383	10	12.2959	0.1267	0.0843
351.1654	0.9174	Cf	Correct	0.906	wl.u	0.829	0.4143	0.4147	30	12.2959	0.1267	0.0843
354.6854	0.9174	Cb	Correct	0.914	wl.u	0.829	0.4579	0.3711	50	12.2959	0.1267	0.0843
358.2214	0.6339	Ae	Correct	0.622	ww	0.8673	0.7107	0.1566	20	12.2959	0.1267	0.0843
363.2424	0.9341	Ef	Correct	0.92	wl.l	0.7107	0.4143	0.2964	20	12.2959	0.1267	0.0843
366.2784	0.9341	dE	Correct	0.92	wl.u	0.7107	0.5579	0.1528	30	12.2959	0.1267	0.0843
370.7984	1.201	eA	Correct	1.198	ww	0.8673	0.7107	0.1566	20	12.2959	0.1267	0.0843
374.8184	0.7173	Ad	Correct	0.705	wl.u	0.8673	0.5579	0.3094	50	12.2959	0.1267	0.0843
382.3574	0.784	fC	Correct	0.778	wl.u	0.829	0.4143	0.4147	30	12.2959	0.1267	0.0843
386.8784	0.7673	Ac	Correct	0.751	ww	0.8673	0.829	0.0383	10	12.2959	0.1267	0.0843
391.3984	0.6172	Af	Correct	0.611	wl.u	0.8673	0.4143	0.453	40	12.2959	0.1267	0.0843
394.4344	1.9182	Db	inCorrect	1.907	ll	0.4579	0.5579	-0.1	10	12.2959	0.1267	0.0843
398.9544	1.0842	Db	Correct	1.069	ll	0.5579	0.4579	0.1	10	12.2959	0.1267	0.0843
402.9744	1.1843	Fd	Correct	1.173	ll	0.4143	0.5579	-0.1436	10	12.2959	0.1267	0.0843
406.5104	1.0842	eC	Correct	1.067	ww	0.829	0.7107	0.1183	10	12.2959	0.1267	0.0843
411.0304	0.6839	dA	Correct	0.672	wl.u	0.8673	0.5579	0.3094	50	12.2959	0.1267	0.0843
414.5674	0.8507	Ad	Correct	0.841	wl.u	0.8673	0.5579	0.3094	50	12.2959	0.1267	0.0843
419.0874	0.6839	Ac	Correct	0.68	ww	0.8673	0.829	0.0383	10	12.2959	0.1267	0.0843
423.6074	0.6339	Ac	Correct	0.622	ww	0.8673	0.829	0.0383	10	12.2959	0.1267	0.0843
426.6434	0.8841	fA	Correct	0.875	wl.u	0.8673	0.4143	0.453	40	12.2959	0.1267	0.0843
431.1634	1.201	eC	Correct	1.183	ww	0.829	0.7107	0.1183	10	12.2959	0.1267	0.0843
435.1834	0.8674	Ad	Correct	0.865	wl.u	0.8673	0.5579	0.3094	50	12.2959	0.1267	0.0843
439.2034	0.6672	dC	Correct	0.66	wl.l	0.829	0.5579	0.2711	40	12.2959	0.1267	0.0843
443.7234	1.2344	Ed	Correct	1.216	wl.u	0.7107	0.5579	0.1528	30	12.2959	0.1267	0.0843
446.7764	1.1009	Cf	Correct	1.096	wl.u	0.829	0.4143	0.4147	30	12.2959	0.1267	0.0843
450.8124	0.834	bE	Correct	0.828	wl.u	0.7107	0.4579	0.2528	40	12.2959	0.1267	0.0843
459.8364	0.784	Ac	Correct	0.77	ww	0.8673	0.829	0.0383	10	12.2959	0.1267	0.0843
463.8564	0.7506	fA	Correct	0.746	wl.u	0.8673	0.4143	0.453	40	12.2959	0.1267	0.0843
467.8764	1.0509	Ae	Correct	1.039	ww	0.8673	0.7107	0.1566	20	12.2959	0.1267	0.0843
471.3964	1.0342	eA	Correct	1.032	ww	0.8673	0.7107	0.1566	20	12.2959	0.1267	0.0843
475.4164	1.1677	Ac	Correct	1.159	ww	0.8673	0.829	0.0383	10	12.2959	0.1267	0.0843
479.9364	1.2343	Ef	Correct	1.227	wl.l	0.7107	0.4143	0.2964	20	12.2959	0.1267	0.0843
483.4554	1.2009	fE	Correct	1.195	wl.l	0.7107	0.4143	0.2964	20	12.2959	0.1267	0.0843
487.4754	1.0675	Fd	Correct	1.063	ll	0.4143	0.5579	-0.1436	10	12.2959	0.1267	0.0843
491.9964	0.6672	Ab	Correct	0.659	wl.l	0.8673	0.4579	0.4094	60	12.2959	0.1267	0.0843
496.0164	0.9007	dE	Correct	0.898	wl.u	0.7107	0.5579	0.1528	30	12.2959	0.1267	0.0843
503.0554	1.1676	dE	Correct	1.159	wl.u	0.7107	0.5579	0.1528	30	12.2959	0.1267	0.0843
507.0914	1.0341	Ce	inCorrect	1.031	ww	0.7107	0.829	-0.1183	10	12.2959	0.1267	0.0843
511.6114	0.9507	bE	Correct	0.933	wl.u	0.7107	0.4579	0.2528	40	12.2959	0.1267	0.0843
515.1484	0.8173	Ab	Correct	0.812	wl.l	0.8673	0.4579	0.4094	60	12.2959	0.1267	0.0843
519.6684	0.9174	Cd	Correct	0.907	wl.l	0.829	0.5579	0.2711	40	12.2959	0.1267	0.0843
523.6884	1.0842	dE	Correct	1.08	wl.u	0.7107	0.5579	0.1528	30	12.2959	0.1267	0.0843
