onset	duration	RT	Trial_type	Response	SSD
1.0341	0.5171	1329	Go	correct	n/a
5.5378	0.5171	875	Stop	Failed_stop	200
9.541	0.5171	777	Stop	Failed_stop	200
13.0439	0.5171	674	Go	Incorrect	n/a
17.5475	0.5171	985	Go	correct	n/a
21.5507	0.5171	845	Go	correct	n/a
25.0536	0.5171	939	Go	correct	n/a
28.0727	0.5171	909	Go	Incorrect	n/a
33.0601	0.517	952	Stop	Failed_stop	150
36.5629	0.5171	843	Go	correct	n/a
41.5669	0.5171	1031	Go	correct	n/a
44.5694	0.5171	1377	Go	correct	n/a
49.5734	0.5171	0	Stop	succesful_stop	100
53.0763	0.517	808	Go	correct	n/a
57.0795	0.5171	919	Go	correct	n/a
61.0827	0.5171	0	Stop	succesful_stop	50
65.086	0.5171	0	Stop	succesful_stop	50
68.5888	0.5171	1006	Go	correct	n/a
72.1083	0.5171	0	Stop	succesful_stop	100
81.0989	0.5171	990	Go	correct	n/a
85.6026	0.5171	694	Go	correct	n/a
88.1213	0.5171	1333	Go	correct	n/a
92.6082	0.5171	0	Stop	succesful_stop	150
96.6115	0.5171	906	Go	correct	n/a
101.1151	0.5171	956	Go	correct	n/a
105.1184	0.5171	835	Go	correct	n/a
108.1375	0.5171	0	Stop	succesful_stop	200
112.6244	0.5171	936	Go	correct	n/a
116.144	0.517	784	Go	correct	n/a
121.1313	0.5171	0	Stop	succesful_stop	250
125.635	0.5171	0	Stop	succesful_stop	300
128.6374	0.5171	892	Go	correct	n/a
132.1569	0.5171	1287	Go	correct	n/a
137.1443	0.5171	0	Stop	succesful_stop	350
141.6479	0.5171	1032	Go	correct	n/a
145.6512	0.517	0	Stop	succesful_stop	400
149.154	0.5171	1564	Go	correct	n/a
153.6576	0.5171	1046	Go	correct	n/a
157.1605	0.5171	1034	Stop	Failed_stop	450
160.1796	0.5171	866	Go	correct	n/a
164.1828	0.5171	0	Stop	succesful_stop	500
169.1702	0.5171	1076	Go	correct	n/a
173.6738	0.5171	0	Stop	succesful_stop	550
181.1799	0.5171	1056	Go	correct	n/a
185.1832	0.517	798	Go	correct	n/a
189.1864	0.5171	944	Go	correct	n/a
197.1929	0.5171	1059	Stop	Failed_stop	600
201.1961	0.5171	775	Go	correct	n/a
204.6989	0.5171	0	Stop	succesful_stop	650
208.7022	0.5171	0	Stop	succesful_stop	700
213.7062	0.5171	825	Go	correct	n/a
216.7087	0.517	679	Stop	Failed_stop	750
221.2123	0.5171	1119	Go	correct	n/a
225.7159	0.5171	888	Go	correct	n/a
229.2188	0.5171	863	Stop	Failed_stop	800
232.7216	0.5171	1297	Go	correct	n/a
236.7248	0.5171	1312	Go	correct	n/a
241.7289	0.5171	920	Go	correct	n/a
244.2476	0.5171	1021	Go	correct	n/a
252.7378	0.5171	1195	Go	correct	n/a
257.7419	0.517	0	Stop	succesful_stop	850
264.7475	0.5171	1053	Go	correct	n/a
268.267	0.5171	766	Go	correct	n/a
273.7548	0.5171	1166	Go	correct	n/a
276.2735	0.5171	0	Stop	succesful_stop	900
280.7605	0.5171	1751	Go	correct	n/a
285.7645	0.5171	731	Go	correct	n/a
292.2865	0.5171	1311	Go	correct	n/a
296.7734	0.5171	1473	Go	correct	n/a
301.2771	0.5171	1171	Go	correct	n/a
305.2803	0.5171	1163	Go	correct	n/a
308.7832	0.517	1332	Go	correct	n/a
312.7864	0.5171	1226	Go	correct	n/a
317.7904	0.5171	0	Stop	succesful_stop	950
321.7937	0.5171	0	Stop	succesful_stop	1000
325.2965	0.5171	1232	Stop	Failed_stop	1050
328.3156	0.5171	1263	Go	correct	n/a
333.8034	0.5171	1675	Go	correct	n/a
336.8058	0.5171	1414	Go	correct	n/a
341.3095	0.5171	0	Stop	succesful_stop	1100
345.3127	0.5171	0	Stop	succesful_stop	1150
349.8164	0.517	1303	Stop	Failed_stop	1200
352.8188	0.5171	1636	Go	correct	n/a
357.8228	0.5171	0	Stop	succesful_stop	1250
361.3257	0.5171	0	Stop	succesful_stop	1300
368.348	0.5171	1654	Go	correct	n/a
372.835	0.5171	1444	Go	correct	n/a
376.3545	0.5171	1435	Stop	Failed_stop	1350
384.361	0.5171	1512	Go	correct	n/a
388.3642	0.5171	1384	Go	correct	n/a
392.8512	0.5171	1362	Stop	Failed_stop	1400
397.8552	0.5171	2124	Go	correct	n/a
401.3581	0.517	1902	Go	correct	n/a
404.3772	0.517	1578	Go	correct	n/a
408.8641	0.5171	1393	Go	correct	n/a
413.3678	0.5171	1625	Go	correct	n/a
417.371	0.5171	2024	Go	correct	n/a
420.8738	0.5171	1373	Go	correct	n/a
424.8771	0.5171	1059	Go	correct	n/a
428.8803	0.5171	1346	Go	correct	n/a
433.384	0.5171	1072	Go	correct	n/a
436.8868	0.5171	1322	Stop	Failed_stop	1450
441.8908	0.5171	1582	Go	correct	n/a
445.8941	0.5171	1811	Go	correct	n/a
453.9006	0.5171	1485	Go	correct	n/a
456.4193	0.5171	1426	Stop	Failed_stop	1500
465.4099	0.5171	1841	Go	correct	n/a
468.9127	0.5171	1797	Stop	Failed_stop	1550
472.4322	0.5171	1831	Go	correct	n/a
476.9192	0.5171	1041	Stop	Failed_stop	1600
485.4261	0.5171	1094	Go	correct	n/a
489.4293	0.5171	647	Stop	Failed_stop	1650
493.933	0.517	577	Stop	Failed_stop	1700
496.9354	0.5171	948	Go	correct	n/a
501.9394	0.5171	978	Go	correct	n/a
505.9427	0.5171	841	Go	correct	n/a
509.4455	0.5171	1098	Go	correct	n/a
513.9492	0.517	845	Go	correct	n/a
516.4679	0.517	821	Stop	Failed_stop	1750
520.4711	0.5171	1768	Stop	Failed_stop	1800
525.9589	0.517	1698	Go	correct	n/a
528.4776	0.5171	0	Stop	succesful_stop	1850
533.9653	0.5171	1933	Stop	Failed_stop	1900
536.9678	0.5171	2685	Go	correct	n/a
540.971	0.5171	2323	Go	correct	n/a
544.4905	0.5171	1822	Go	correct	n/a
548.9775	0.5171	1868	Stop	Failed_stop	1950
552.9807	0.5171	1897	Go	correct	n/a
556.5002	0.5171	1983	Go	correct	n/a
560.5035	0.5171	1810	Go	correct	n/a
565.9913	0.517	936	Go	correct	n/a
573.9977	0.5171	856	Stop	Failed_stop	2000
578.001	0.5171	1002	Go	correct	n/a
580.5197	0.5171	1616	Go	correct	n/a
590.0107	0.5171	1494	Go	correct	n/a
594.0139	0.5171	2122	Go	correct	n/a
597.5168	0.517	1839	Stop	Failed_stop	2050
605.0228	0.5171	2241	Go	correct	n/a
609.0261	0.5171	1814	Go	correct	n/a
613.5297	0.5171	2185	Stop	Failed_stop	2100
617.533	0.517	2725	Go	correct	n/a
620.5521	0.517	2453	Go	correct	n/a
626.0398	0.5171	2268	Go	correct	n/a
634.0463	0.5171	2061	Go	correct	n/a
638.0496	0.517	2231	Go	correct	n/a
641.052	0.5171	2092	Go	correct	n/a
644.5715	0.5171	2062	Stop	Failed_stop	2100
649.5589	0.517	2957	Go	correct	n/a
653.5621	0.5171	2384	Stop	Failed_stop	2050
658.0657	0.5171	0	Stop	succesful_stop	2000
