onset	duration	Pair	Choice	Response	RT	Feedback_Onset	Feedback_duration	Balance	RPE	Q_chosen	Q_notchosen	npair	Beta_Q	alpha_gain	alpha_loss
0.5819	1.5865	AB	A	Correct	1.576	2.4686	0.5171	1	0.5	0.5	0.5	12	1.2468	0.0151	0.0062
4.1199	1.0175	BA	A	Correct	1.003	5.4376	0.5171	1	0.4925	0.5075	0.5	12	1.2468	0.0151	0.0062
8.6402	1.0342	BA	A	Correct	1.022	9.9746	0.5171	1	0.485	0.515	0.5	12	1.2468	0.0151	0.0062
12.6601	1.1843	FE	F	Incorrect	1.168	14.1446	0.5171	-1	-0.5	0.5	0.5	56	1.2468	0.0151	0.0062
17.1804	1.0508	AB	B	Incorrect	1.038	18.5315	0.517	-1	-0.5	0.5	0.5223	12	1.2468	0.0151	0.0062
25.7039	1.0008	FE	F	Incorrect	0.998	27.0049	0.5171	1	0.5031	0.4969	0.5	56	1.2468	0.0151	0.0062
33.727	1.2343	BA	A	Correct	1.223	35.2615	0.5171	1	0.4777	0.5223	0.4969	12	1.2468	0.0151	0.0062
37.2464	1.3178	AB	A	Correct	1.313	38.8644	0.5171	-1	-0.5295	0.5295	0.4969	12	1.2468	0.0151	0.0062
40.7659	0.9841	FE	E	Correct	0.976	42.0503	0.5171	-1	-0.5	0.5	0.5045	56	1.2468	0.0151	0.0062
44.7858	1.5012	FE	F	Incorrect	1.499	46.5872	0.5171	1	0.4955	0.5045	0.4969	56	1.2468	0.0151	0.0062
48.8057	1.1009	DC	C	Correct	1.09	50.2068	0.5171	-1	-0.5	0.5	0.5	34	1.2468	0.0151	0.0062
53.8264	1.3344	AB	A	Correct	1.33	55.461	0.5171	1	0.4738	0.5262	0.4969	12	1.2468	0.0151	0.0062
57.3459	0.9007	CD	D	Incorrect	0.888	58.5468	0.5171	-1	-0.5	0.5	0.4969	34	1.2468	0.0151	0.0062
61.3657	1.1009	CD	D	Incorrect	1.099	62.7669	0.517	-1	-0.4969	0.4969	0.4969	34	1.2468	0.0151	0.0062
64.8852	0.9174	CD	D	Incorrect	0.91	66.1029	0.517	1	0.5061	0.4939	0.4969	34	1.2468	0.0151	0.0062
68.4214	1.0508	AB	A	Correct	1.041	69.7725	0.517	1	0.4666	0.5334	0.4969	12	1.2468	0.0151	0.0062
73.4421	0.9507	BA	A	Correct	0.938	74.6931	0.5171	-1	-0.5404	0.5404	0.4969	12	1.2468	0.0151	0.0062
76.9616	1.8514	EF	F	Incorrect	1.838	79.1133	0.5171	-1	-0.512	0.512	0.4969	56	1.2468	0.0151	0.0062
80.9814	2.1351	AB	A	Correct	2.119	83.4167	0.5171	1	0.4629	0.5371	0.4969	12	1.2468	0.0151	0.0062
85.5017	1.251	FE	E	Correct	1.235	87.053	0.517	-1	-0.4969	0.4969	0.5088	56	1.2468	0.0151	0.0062
88.5375	1.5679	EF	E	Correct	1.557	90.4056	0.5171	1	0.5061	0.4939	0.5088	56	1.2468	0.0151	0.0062
93.5582	1.5512	BA	B	Incorrect	1.547	95.4097	0.517	-1	-0.4969	0.4969	0.5441	12	1.2468	0.0151	0.0062
98.0785	1.5846	CD	D	Incorrect	1.574	99.9633	0.5171	-1	-0.5015	0.5015	0.4969	34	1.2468	0.0151	0.0062
101.5979	1.4679	FE	F	Incorrect	1.465	103.366	0.5171	1	0.4912	0.5088	0.5015	56	1.2468	0.0151	0.0062
104.6337	0.9007	FE	F	Incorrect	0.897	105.8347	0.517	-1	-0.5162	0.5162	0.5015	56	1.2468	0.0151	0.0062
110.1548	1.4845	BA	B	Incorrect	1.469	111.9395	0.5171	-1	-0.4939	0.4939	0.5441	12	1.2468	0.0151	0.0062
113.6743	2.7021	CD	D	Incorrect	2.685	116.6767	0.0167	-1	-0.4984	0.4984	0.4969	34	1.2468	0.0151	0.0062
117.6941	1.7014	BA	B	Incorrect	1.694	119.6958	0.517	-1	-0.4908	0.4908	0.5441	12	1.2468	0.0151	0.0062
122.2144	0.9508	DC	D	Incorrect	0.948	123.4654	0.5171	-1	-0.4953	0.4953	0.4969	34	1.2468	0.0151	0.0062
124.7498	1.7848	DC	C	Correct	1.773	126.8348	0.5171	1	0.5031	0.4969	0.4923	34	1.2468	0.0151	0.0062
129.7705	0.884	BA	A	Correct	0.877	130.9548	0.517	1	0.4559	0.5441	0.4878	12	1.2468	0.0151	0.0062
134.2908	1.7347	EF	F	Incorrect	1.721	136.3257	0.4837	1	0.4869	0.5131	0.5015	56	1.2468	0.0151	0.0062
138.3107	1.2343	BA	A	Correct	1.222	139.8452	0.5171	-1	-0.5509	0.5509	0.4878	12	1.2468	0.0151	0.0062
140.846	1.1676	DC	D	Incorrect	1.157	142.3139	0.517	1	0.5077	0.4923	0.5045	34	1.2468	0.0151	0.0062
146.3671	1.301	EF	F	Incorrect	1.29	147.9684	0.5171	-1	-0.5204	0.5204	0.5015	56	1.2468	0.0151	0.0062
149.8866	0.6839	CD	C	Correct	0.666	150.8707	0.5171	-1	-0.5045	0.5045	0.4999	34	1.2468	0.0151	0.0062
153.9065	0.9841	FE	F	Incorrect	0.981	155.1908	0.5171	-1	-0.5172	0.5172	0.5015	56	1.2468	0.0151	0.0062
157.4259	0.7506	DC	C	Correct	0.743	158.4768	0.5171	1	0.4986	0.5014	0.4999	34	1.2468	0.0151	0.0062
162.4466	1.0342	FE	F	Incorrect	1.019	163.781	0.5171	-1	-0.514	0.514	0.5015	56	1.2468	0.0151	0.0062
165.4657	0.8841	FE	E	Correct	0.874	166.65	0.5171	1	0.4985	0.5015	0.5108	56	1.2468	0.0151	0.0062
169.4856	1.5179	EF	F	Incorrect	1.506	171.3037	0.5171	-1	-0.5108	0.5108	0.509	56	1.2468	0.0151	0.0062
174.0059	0.8006	EF	E	Correct	0.795	175.1068	0.517	1	0.491	0.509	0.5077	56	1.2468	0.0151	0.0062
178.5262	0.884	DC	D	Incorrect	0.866	179.7104	0.5171	-1	-0.4999	0.4999	0.5089	34	1.2468	0.0151	0.0062
182.0457	1.3177	EF	E	Correct	1.312	183.6636	0.5171	1	0.4836	0.5164	0.5077	56	1.2468	0.0151	0.0062
190.0687	1.1676	FE	F	Incorrect	1.157	191.5366	0.5171	-1	-0.5077	0.5077	0.5237	56	1.2468	0.0151	0.0062
193.1045	1.4345	DC	C	Correct	1.428	194.8392	0.5171	1	0.4911	0.5089	0.4969	34	1.2468	0.0151	0.0062
197.1411	1.8014	CD	D	Incorrect	1.79	199.2427	0.5171	1	0.5031	0.4969	0.5163	34	1.2468	0.0151	0.0062
205.1808	1.1343	BA	B	Incorrect	1.126	206.6153	0.5171	1	0.5122	0.4878	0.5475	12	1.2468	0.0151	0.0062
210.2015	1.3511	DC	C	Correct	1.335	211.8528	0.5171	1	0.4837	0.5163	0.5044	34	1.2468	0.0151	0.0062
214.7218	1.5346	BA	B	Incorrect	1.518	216.5566	0.5171	1	0.5045	0.4955	0.5475	12	1.2468	0.0151	0.0062
218.2413	1.3844	CD	C	Correct	1.378	219.926	0.517	1	0.4764	0.5236	0.5044	34	1.2468	0.0151	0.0062
222.2612	0.7506	BA	B	Incorrect	0.737	223.312	0.5171	-1	-0.5031	0.5031	0.5475	12	1.2468	0.0151	0.0062
226.7815	0.8173	BA	B	Incorrect	0.805	227.899	0.5171	-1	-0.5	0.5	0.5475	12	1.2468	0.0151	0.0062
233.8037	1.0509	DC	C	Correct	1.043	235.1548	0.5171	1	0.4692	0.5308	0.5044	34	1.2468	0.0151	0.0062
238.8244	1.5179	FE	E	Correct	1.515	240.6425	0.5171	1	0.4763	0.5237	0.5046	56	1.2468	0.0151	0.0062
242.8443	1.5512	FE	E	Correct	1.539	244.6958	0.5171	1	0.4691	0.5309	0.5046	56	1.2468	0.0151	0.0062
246.8642	1.251	DC	C	Correct	1.243	248.4154	0.5171	-1	-0.5379	0.5379	0.5044	34	1.2468	0.0151	0.0062
253.8865	1.0675	AB	A	Correct	1.062	255.2542	0.5171	-1	-0.5475	0.5475	0.4969	12	1.2468	0.0151	0.0062
258.9072	1.3844	CD	C	Correct	1.377	260.5918	0.5171	-1	-0.5346	0.5346	0.5044	34	1.2468	0.0151	0.0062
261.9262	1.1676	BA	B	Incorrect	1.16	263.3941	0.5171	-1	-0.4969	0.4969	0.5442	12	1.2468	0.0151	0.0062
269.9493	1.5513	CD	D	Incorrect	1.534	271.8008	0.5171	-1	-0.5044	0.5044	0.5313	34	1.2468	0.0151	0.0062
277.4887	0.8674	AB	A	Correct	0.861	278.6563	0.5171	-1	-0.5442	0.5442	0.4939	12	1.2468	0.0151	0.0062
282.5094	1.8681	CD	D	Incorrect	1.853	284.6778	0.5171	1	0.4987	0.5013	0.5313	34	1.2468	0.0151	0.0062
285.5451	1.7514	FE	E	Correct	1.744	287.5968	0.5171	-1	-0.538	0.538	0.5046	56	1.2468	0.0151	0.0062
289.5817	0.8507	CD	C	Correct	0.846	290.7326	0.5171	1	0.4687	0.5313	0.5089	34	1.2468	0.0151	0.0062
294.102	1.5512	FE	E	Correct	1.543	295.9535	0.517	1	0.4653	0.5347	0.5046	56	1.2468	0.0151	0.0062
298.6223	1.3677	EF	F	Incorrect	1.357	300.2903	0.5171	-1	-0.5046	0.5046	0.5417	56	1.2468	0.0151	0.0062
302.1418	1.0174	DC	C	Correct	0.999	303.4595	0.5171	1	0.4617	0.5383	0.5089	34	1.2468	0.0151	0.0062
306.1616	1.4679	BA	B	Incorrect	1.463	307.9297	0.5171	-1	-0.4939	0.4939	0.5408	12	1.2468	0.0151	0.0062
310.6819	1.8181	AB	A	Correct	1.808	312.8003	0.5171	1	0.4592	0.5408	0.4908	12	1.2468	0.0151	0.0062
313.7177	0.9841	CD	D	Incorrect	0.975	315.002	0.5171	-1	-0.5089	0.5089	0.5453	34	1.2468	0.0151	0.0062
321.7574	0.9341	BA	B	Incorrect	0.926	322.9918	0.5171	1	0.5092	0.4908	0.5477	12	1.2468	0.0151	0.0062
326.2777	1.0509	AB	B	Incorrect	1.044	327.6288	0.5171	1	0.5015	0.4985	0.5477	12	1.2468	0.0151	0.0062
330.2976	0.9174	FE	E	Correct	0.911	331.5153	0.517	1	0.4583	0.5417	0.5015	56	1.2468	0.0151	0.0062
334.8179	1.0342	BA	B	Incorrect	1.016	336.1523	0.5171	-1	-0.5061	0.5061	0.5477	12	1.2468	0.0151	0.0062
342.3573	1.0174	EF	E	Correct	1.009	343.675	0.5171	1	0.4514	0.5486	0.5015	56	1.2468	0.0151	0.0062
345.8934	1.3177	AB	B	Incorrect	1.3	347.5114	0.5171	-1	-0.503	0.503	0.5477	12	1.2468	0.0151	0.0062
350.4137	0.834	EF	E	Correct	0.816	351.5313	0.5171	-1	-0.5554	0.5554	0.5015	56	1.2468	0.0151	0.0062
354.4336	1.6013	AB	B	Incorrect	1.595	356.3351	0.5171	1	0.5001	0.4999	0.5477	12	1.2468	0.0151	0.0062
357.9698	1.1842	CD	C	Correct	1.181	359.4543	0.5171	-1	-0.5453	0.5453	0.5057	34	1.2468	0.0151	0.0062
362.9904	0.8674	AB	B	Incorrect	0.859	364.158	0.5171	-1	-0.5074	0.5074	0.5477	12	1.2468	0.0151	0.0062
366.5099	2.5688	DC	C	Correct	2.566	369.3789	0.5171	1	0.458	0.542	0.5057	34	1.2468	0.0151	0.0062
370.5298	1.1843	BA	B	Incorrect	1.167	372.0143	0.5171	-1	-0.5043	0.5043	0.5477	12	1.2468	0.0151	0.0062
379.0533	1.5012	CD	D	Incorrect	1.493	380.8547	0.5171	-1	-0.5057	0.5057	0.5489	34	1.2468	0.0151	0.0062
383.0732	1.251	EF	E	Correct	1.245	384.6244	0.5171	1	0.448	0.552	0.5015	56	1.2468	0.0151	0.0062
387.0931	0.8673	EF	E	Correct	0.849	388.244	0.5171	-1	-0.5587	0.5587	0.5015	56	1.2468	0.0151	0.0062
391.6133	1.1009	FE	E	Correct	1.084	393.0145	0.5171	-1	-0.5553	0.5553	0.5015	56	1.2468	0.0151	0.0062
394.6324	1.1343	BA	B	Incorrect	1.116	396.0669	0.5171	-1	-0.5012	0.5012	0.5477	12	1.2468	0.0151	0.0062
398.6523	1.3177	EF	E	Correct	1.306	400.2703	0.5171	1	0.4481	0.5519	0.5015	56	1.2468	0.0151	0.0062
402.6722	2.7856	DC	C	Correct	2.768	405.758	0.4337	-1	-0.5489	0.5489	0.5026	34	1.2468	0.0151	0.0062
406.2084	1.4178	EF	F	Incorrect	1.403	407.9264	0.5171	1	0.4985	0.5015	0.5586	56	1.2468	0.0151	0.0062
410.7286	1.6847	AB	B	Incorrect	1.679	412.7136	0.517	-1	-0.4981	0.4981	0.5477	12	1.2468	0.0151	0.0062
418.268	1.0675	FE	E	Correct	1.055	419.6358	0.5171	1	0.4414	0.5586	0.509	56	1.2468	0.0151	0.0062
423.7891	1.301	FE	F	Incorrect	1.289	425.3904	0.5171	-1	-0.509	0.509	0.5653	56	1.2468	0.0151	0.0062
426.8082	1.0508	AB	B	Incorrect	1.034	428.1593	0.517	-1	-0.495	0.495	0.5477	12	1.2468	0.0151	0.0062
431.3285	1.0842	AB	A	Correct	1.074	432.7129	0.5171	1	0.4523	0.5477	0.492	12	1.2468	0.0151	0.0062
434.3642	1.4512	BA	A	Correct	1.438	436.1156	0.5171	1	0.4454	0.5546	0.492	12	1.2468	0.0151	0.0062
439.3849	1.4178	BA	B	Incorrect	1.402	441.1029	0.5171	-1	-0.492	0.492	0.5613	12	1.2468	0.0151	0.0062
447.9084	1.2176	DC	C	Correct	1.202	449.4263	0.5171	1	0.4545	0.5455	0.5026	34	1.2468	0.0151	0.0062
450.9275	1.8348	DC	D	Incorrect	1.825	453.0625	0.5171	1	0.4974	0.5026	0.5523	34	1.2468	0.0151	0.0062
454.9474	1.1008	EF	F	Incorrect	1.093	456.3485	0.5171	-1	-0.5058	0.5058	0.5653	56	1.2468	0.0151	0.0062
458.9672	1.3678	BA	B	Incorrect	1.35	460.6352	0.5171	-1	-0.4889	0.4889	0.5613	12	1.2468	0.0151	0.0062
463.4875	1.0675	EF	F	Incorrect	1.06	464.8553	0.5171	-1	-0.5027	0.5027	0.5653	56	1.2468	0.0151	0.0062
468.0078	1.5346	CD	D	Incorrect	1.52	469.8426	0.5171	1	0.4899	0.5101	0.5523	34	1.2468	0.0151	0.0062
471.0269	1.0175	DC	C	Correct	1	472.3446	0.5171	-1	-0.5523	0.5523	0.5175	34	1.2468	0.0151	0.0062
476.0476	1.0842	BA	A	Correct	1.073	477.432	0.5171	1	0.4387	0.5613	0.4859	12	1.2468	0.0151	0.0062
483.0699	1.4178	EF	F	Incorrect	1.402	484.7879	0.5171	-1	-0.4996	0.4996	0.5653	56	1.2468	0.0151	0.0062
491.0929	2.3686	BA	B	Incorrect	2.355	493.7618	0.517	-1	-0.4859	0.4859	0.5679	12	1.2468	0.0151	0.0062
495.6132	1.5513	FE	E	Correct	1.537	497.4647	0.5171	1	0.4347	0.5653	0.4966	56	1.2468	0.0151	0.0062
499.1327	1.5012	CD	D	Incorrect	1.496	500.9342	0.517	-1	-0.5175	0.5175	0.5489	34	1.2468	0.0151	0.0062
503.1526	1.0675	CD	C	Correct	1.051	504.5204	0.517	-1	-0.5489	0.5489	0.5143	34	1.2468	0.0151	0.0062
506.6888	1.3677	BA	B	Incorrect	1.353	508.3568	0.517	1	0.5171	0.4829	0.5679	12	1.2468	0.0151	0.0062
511.7094	1.4846	DC	C	Correct	1.469	513.4942	0.5171	1	0.4544	0.5456	0.5143	34	1.2468	0.0151	0.0062
515.7293	1.4178	DC	C	Correct	1.404	517.4474	0.5171	1	0.4476	0.5524	0.5143	34	1.2468	0.0151	0.0062
519.7492	1.2677	BA	B	Incorrect	1.26	521.3171	0.5171	-1	-0.4907	0.4907	0.5679	12	1.2468	0.0151	0.0062
522.785	1.0175	FE	E	Correct	1.009	524.1027	0.5171	-1	-0.5718	0.5718	0.4966	56	1.2468	0.0151	0.0062
527.3053	1.2843	BA	B	Incorrect	1.27	528.8899	0.517	-1	-0.4877	0.4877	0.5679	12	1.2468	0.0151	0.0062
532.3259	1.5012	FE	F	Incorrect	1.489	534.1274	0.5171	-1	-0.4966	0.4966	0.5683	56	1.2468	0.0151	0.0062
535.8454	1.2343	EF	F	Incorrect	1.217	537.38	0.5171	-1	-0.4935	0.4935	0.5683	56	1.2468	0.0151	0.0062
539.8653	0.9174	DC	D	Incorrect	0.913	541.083	0.517	-1	-0.5143	0.5143	0.5592	34	1.2468	0.0151	0.0062
543.8852	2.035	CD	D	Incorrect	2.027	546.2204	0.5171	-1	-0.5111	0.5111	0.5592	34	1.2468	0.0151	0.0062
547.9051	1.7013	BA	B	Incorrect	1.693	549.9067	0.5171	-1	-0.4847	0.4847	0.5679	12	1.2468	0.0151	0.0062
555.4278	1.2176	DC	C	Correct	1.207	556.9456	0.5171	1	0.4408	0.5592	0.508	34	1.2468	0.0151	0.0062
559.948	2.035	FE	F	Incorrect	2.028	562.2832	0.5171	-1	-0.4905	0.4905	0.5683	56	1.2468	0.0151	0.0062
564.4683	1.2677	CD	D	Incorrect	1.252	566.0362	0.5171	-1	-0.508	0.508	0.5658	34	1.2468	0.0151	0.0062
567.9878	0.9174	DC	D	Incorrect	0.913	569.2055	0.517	-1	-0.5049	0.5049	0.5658	34	1.2468	0.0151	0.0062
572.5081	1.2844	EF	E	Correct	1.269	574.0927	0.5171	1	0.4317	0.5683	0.4874	56	1.2468	0.0151	0.0062
575.5272	2.3352	AB	B	Incorrect	2.324	578.1626	0.5171	-1	-0.4817	0.4817	0.5679	12	1.2468	0.0151	0.0062
579.0633	1.1343	BA	B	Incorrect	1.122	580.4978	0.5171	-1	-0.4788	0.4788	0.5679	12	1.2468	0.0151	0.0062
583.0999	1.1009	CD	C	Correct	1.09	584.501	0.5171	1	0.4342	0.5658	0.5018	34	1.2468	0.0151	0.0062
588.621	1.1676	AB	A	Correct	1.153	590.0888	0.5171	-1	-0.5679	0.5679	0.4758	12	1.2468	0.0151	0.0062
592.1405	2.5187	FE	E	Correct	2.515	594.9594	0.2002	-1	-0.5748	0.5748	0.4874	56	1.2468	0.0151	0.0062
595.66	1.0174	FE	F	Incorrect	1.009	596.9777	0.5171	-1	-0.4874	0.4874	0.5713	56	1.2468	0.0151	0.0062
599.1961	1.3177	FE	F	Incorrect	1.313	600.8141	0.5171	-1	-0.4844	0.4844	0.5713	56	1.2468	0.0151	0.0062
604.7172	1.301	FE	E	Correct	1.292	606.3185	0.5171	1	0.4287	0.5713	0.4814	56	1.2468	0.0151	0.0062
607.2526	1.2009	AB	B	Incorrect	1.194	608.7538	0.517	1	0.5242	0.4758	0.5644	12	1.2468	0.0151	0.0062
611.7728	1.251	EF	E	Correct	1.234	613.3241	0.5171	1	0.4222	0.5778	0.4814	56	1.2468	0.0151	0.0062
615.7927	2.1184	AB	B	Incorrect	2.112	618.2113	0.5171	-1	-0.4837	0.4837	0.5644	12	1.2468	0.0151	0.0062
620.313	1.0508	BA	B	Incorrect	1.047	621.6641	0.5171	1	0.5193	0.4807	0.5644	12	1.2468	0.0151	0.0062
623.8325	1.1509	AB	B	Incorrect	1.143	625.2837	0.517	-1	-0.4886	0.4886	0.5644	12	1.2468	0.0151	0.0062
627.8524	1.5846	AB	B	Incorrect	1.567	629.7372	0.5171	-1	-0.4856	0.4856	0.5644	12	1.2468	0.0151	0.0062
631.3885	1.3344	CD	C	Correct	1.317	633.0232	0.5171	1	0.4276	0.5724	0.5018	34	1.2468	0.0151	0.0062
636.4092	1.5679	CD	C	Correct	1.555	638.2774	0.5171	1	0.4212	0.5788	0.5018	34	1.2468	0.0151	0.0062
639.9287	1.8682	EF	E	Correct	1.857	642.0971	0.5171	-1	-0.5841	0.5841	0.4814	56	1.2468	0.0151	0.0062
643.9486	2.2351	BA	A	Correct	2.229	646.4839	0.5171	1	0.4356	0.5644	0.4826	12	1.2468	0.0151	0.0062
647.4848	2.9857	AB	B	Incorrect	2.979	650.7707	0.5171	-1	-0.4826	0.4826	0.571	12	1.2468	0.0151	0.0062
652.005	2.502	FE	F	Incorrect	2.484	654.8073	0.5171	-1	-0.4814	0.4814	0.5805	56	1.2468	0.0151	0.0062
656.5253	1.2177	AB	A	Correct	1.203	658.0432	0.5171	1	0.429	0.571	0.4796	12	1.2468	0.0151	0.0062
659.5611	1.3344	EF	E	Correct	1.322	661.1957	0.5171	1	0.4195	0.5805	0.4785	56	1.2468	0.0151	0.0062
664.5818	1.1008	FE	F	Incorrect	1.09	665.9829	0.5171	-1	-0.4785	0.4785	0.5869	56	1.2468	0.0151	0.0062
