onset	duration	RT	Trial_type	Response	SSD
1.5346	0.5171	908	Stop	Failed_stop	200
4.0533	0.5171	617	Go	correct	n/a
8.5403	0.517	554	Go	correct	n/a
12.0598	0.5171	609	Stop	Failed_stop	200
17.0471	0.5171	826	Go	Incorrect	n/a
20.0662	0.5171	708	Go	correct	n/a
25.554	0.5171	837	Go	correct	n/a
29.5572	0.5171	770	Go	correct	n/a
33.5604	0.5171	684	Go	correct	n/a
36.5629	0.517	660	Go	correct	n/a
41.0665	0.5171	666	Go	correct	n/a
44.5693	0.5171	527	Go	correct	n/a
49.0729	0.5171	711	Go	correct	n/a
52.5758	0.517	0	Stop	succesful_stop	150
56.0953	0.517	527	Go	correct	n/a
60.0985	0.5171	563	Go	correct	n/a
64.1017	0.5171	543	Go	correct	n/a
68.5887	0.5171	590	Go	correct	n/a
73.0923	0.5171	0	Stop	succesful_stop	150
76.5951	0.5171	787	Go	correct	n/a
81.0988	0.517	641	Stop	Failed_stop	200
85.6024	0.5171	559	Go	correct	n/a
93.6088	0.5171	607	Go	correct	n/a
96.1275	0.5171	0	Stop	succesful_stop	200
101.6153	0.5171	586	Go	correct	n/a
105.6185	0.5171	692	Stop	Failed_stop	250
108.6209	0.5171	0	Stop	succesful_stop	250
113.625	0.5171	0	Stop	succesful_stop	300
116.1437	0.5171	836	Go	correct	n/a
125.1343	0.517	0	Stop	succesful_stop	350
128.1534	0.517	603	Go	correct	n/a
132.6403	0.5171	0	Stop	succesful_stop	400
137.1439	0.5171	0	Stop	succesful_stop	450
141.6476	0.517	699	Go	correct	n/a
149.654	0.5171	0	Stop	succesful_stop	500
152.1727	0.5171	781	Go	correct	n/a
157.1601	0.5171	618	Go	correct	n/a
161.6637	0.5171	759	Go	correct	n/a
165.1665	0.5171	858	Go	correct	n/a
168.1856	0.5171	631	Go	correct	n/a
172.6726	0.5171	634	Go	correct	n/a
177.1762	0.5171	776	Stop	Failed_stop	550
181.6798	0.5171	886	Go	correct	n/a
184.1985	0.5171	867	Go	correct	n/a
189.6863	0.5171	835	Go	correct	n/a
193.1891	0.5171	963	Go	correct	n/a
197.1923	0.5171	938	Go	correct	n/a
201.1956	0.517	0	Stop	succesful_stop	600
205.6992	0.5171	899	Go	correct	n/a
209.7024	0.5171	820	Go	correct	n/a
213.7056	0.5171	887	Go	correct	n/a
217.2085	0.5171	1042	Go	correct	n/a
220.2276	0.5171	877	Go	correct	n/a
225.7153	0.5171	1030	Go	correct	n/a
229.2182	0.517	975	Go	correct	n/a
232.721	0.5171	1023	Go	correct	n/a
236.2405	0.5171	1207	Go	correct	n/a
241.7282	0.5171	1104	Go	correct	n/a
245.2311	0.517	1117	Go	correct	n/a
248.2502	0.517	1090	Go	correct	n/a
253.2375	0.5171	0	Stop	succesful_stop	650
260.7436	0.517	883	Go	correct	n/a
264.7468	0.5171	844	Go	correct	n/a
268.75	0.5171	1026	Go	correct	n/a
273.7541	0.517	0	Stop	succesful_stop	700
277.2569	0.5171	0	Stop	succesful_stop	750
280.276	0.5171	902	Go	correct	n/a
285.7637	0.5171	1080	Go	correct	n/a
289.2666	0.517	1153	Go	correct	n/a
293.2698	0.5171	1198	Go	correct	n/a
296.2889	0.5171	1215	Go	correct	n/a
300.2921	0.5171	0	Stop	succesful_stop	800
308.2986	0.517	0	Stop	succesful_stop	850
317.7895	0.5171	1039	Go	correct	n/a
321.2924	0.5171	1240	Go	correct	n/a
325.796	0.5171	0	Stop	succesful_stop	900
328.7984	0.5171	1111	Go	correct	n/a
333.3021	0.517	1005	Stop	Failed_stop	950
336.8049	0.5171	1445	Go	correct	n/a
341.3085	0.5171	1011	Go	correct	n/a
344.8113	0.5171	1188	Go	correct	n/a
349.8154	0.517	1043	Go	correct	n/a
352.8178	0.5171	1006	Go	correct	n/a
356.821	0.5171	1112	Go	correct	n/a
361.3246	0.5171	1047	Go	correct	n/a
369.8315	0.5171	1014	Stop	Failed_stop	1000
372.3502	0.5171	974	Stop	Failed_stop	1050
377.3375	0.5171	1060	Go	correct	n/a
381.8412	0.5171	1055	Go	correct	n/a
385.8444	0.5171	1009	Go	correct	n/a
392.85	0.5171	1233	Go	Incorrect	n/a
397.3537	0.5171	1332	Go	correct	n/a
401.3569	0.5171	1082	Go	correct	n/a
405.8605	0.5171	1017	Go	correct	n/a
409.8638	0.517	919	Go	correct	n/a
412.8662	0.5171	1174	Go	correct	n/a
416.8694	0.5171	1182	Stop	Failed_stop	1100
425.3763	0.517	1029	Go	correct	n/a
429.8799	0.5171	1352	Go	correct	n/a
432.3986	0.5171	1788	Go	correct	n/a
437.8863	0.5171	910	Stop	Failed_stop	1150
445.8928	0.5171	1344	Stop	Failed_stop	1200
449.3956	0.5171	0	Stop	succesful_stop	1250
453.3988	0.5171	0	Stop	succesful_stop	1300
456.4179	0.5171	1433	Go	correct	n/a
461.9057	0.5171	1452	Stop	Failed_stop	1350
464.9081	0.5171	1829	Go	correct	n/a
469.4118	0.517	1489	Go	correct	n/a
472.9146	0.5171	1530	Go	correct	n/a
477.9186	0.5171	1576	Go	correct	n/a
481.4214	0.5171	1613	Go	correct	n/a
485.4247	0.517	1501	Stop	Failed_stop	1400
489.4279	0.5171	1717	Go	correct	n/a
493.9315	0.5171	1501	Go	correct	n/a
497.9347	0.5171	1482	Stop	Failed_stop	1450
500.9372	0.517	1493	Stop	Failed_stop	1500
505.9412	0.5171	1745	Stop	Failed_stop	1550
508.4599	0.5171	2443	Go	correct	n/a
513.4472	0.5171	1732	Go	correct	n/a
516.9501	0.517	0	Stop	succesful_stop	1600
520.9533	0.5171	2135	Go	correct	n/a
525.4569	0.5171	0	Stop	succesful_stop	1650
529.4601	0.5171	0	Stop	succesful_stop	1700
532.963	0.5171	1873	Go	correct	n/a
536.4825	0.5171	1770	Stop	Failed_stop	1750
545.9735	0.517	2177	Go	correct	n/a
549.4763	0.5171	1856	Stop	Failed_stop	1800
556.9823	0.5171	1972	Stop	Failed_stop	1850
560.9856	0.517	2419	Go	correct	n/a
564.5051	0.517	2067	Stop	Failed_stop	1900
568.992	0.5171	2421	Go	correct	n/a
572.5115	0.5171	2024	Stop	Failed_stop	1950
576.9985	0.517	0	Stop	succesful_stop	2000
580.518	0.517	0	Stop	succesful_stop	2050
585.0049	0.5171	2035	Go	correct	n/a
589.5085	0.5171	2407	Go	correct	n/a
593.0114	0.5171	2142	Stop	Failed_stop	2100
597.0146	0.5171	2622	Go	correct	n/a
600.5341	0.5171	0	Stop	succesful_stop	2150
605.5215	0.517	2697	Go	correct	n/a
609.5247	0.5171	2703	Go	correct	n/a
612.5438	0.5171	1077	Go	correct	n/a
622.0348	0.517	1865	Stop	Failed_stop	2200
626.038	0.5171	959	Go	correct	n/a
633.0436	0.5171	2043	Go	correct	n/a
637.0469	0.517	2707	Go	correct	n/a
641.5505	0.5171	983	Stop	Failed_stop	2250
646.0541	0.5171	0	Stop	succesful_stop	2300
654.0606	0.5171	0	Stop	succesful_stop	2350
657.063	0.5171	2488	Go	correct	n/a
