onset	duration	Pair	Choice	Response	RT	Feedback_Onset	Feedback_duration	Balance	RPE	Q_chosen	Q_notchosen	npair	Beta_Q	alpha_gain	alpha_loss
0.0501	1.0842	FE	E	Correct	1.072	1.8849	0.5171	1	0.4718	0.5282	0.5813	56	2.0954	0.0165	0.004
5.5712	1.4345	AB	A	Correct	1.418	7.306	0.5171	-1	-0.6551	0.6551	0.5113	12	2.0954	0.0165	0.004
9.5912	1.6847	EF	E	Correct	1.682	11.5761	0.5171	1	0.4641	0.5359	0.5813	56	2.0954	0.0165	0.004
13.1107	1.201	EF	F	Incorrect	1.183	14.6119	0.5171	-1	-0.5813	0.5813	0.5436	56	2.0954	0.0165	0.004
16.6302	1.0843	BA	A	Correct	1.07	18.0147	0.5171	-1	-0.6524	0.6524	0.5113	12	2.0954	0.0165	0.004
21.1506	0.784	DC	D	Incorrect	0.776	22.2348	0.5171	-1	-0.5402	0.5402	0.6267	34	2.0954	0.0165	0.004
24.1864	1.8849	BA	A	Correct	1.874	26.3715	0.5171	1	0.3502	0.6498	0.5113	12	2.0954	0.0165	0.004
28.223	2.4854	AB	A	Correct	2.477	31.0086	0.5171	1	0.3444	0.6556	0.5113	12	2.0954	0.0165	0.004
36.7466	1.5346	AB	B	Incorrect	1.533	38.5815	0.5171	1	0.4887	0.5113	0.6613	12	2.0954	0.0165	0.004
40.2828	2.1351	EF	E	Correct	2.128	42.7182	0.5171	-1	-0.5436	0.5436	0.5789	56	2.0954	0.0165	0.004
44.8032	0.6338	BA	A	Correct	0.625	45.7373	0.5171	1	0.3387	0.6613	0.5194	12	2.0954	0.0165	0.004
48.3394	1.4345	EF	E	Correct	1.419	50.0742	0.517	1	0.4586	0.5414	0.5789	56	2.0954	0.0165	0.004
52.376	2.4854	FE	E	Correct	2.479	55.1616	0.5171	1	0.451	0.549	0.5789	56	2.0954	0.0165	0.004
57.8972	1.5513	FE	E	Correct	1.542	59.7487	0.5171	-1	-0.5564	0.5564	0.5789	56	2.0954	0.0165	0.004
60.9163	1.7014	DC	D	Incorrect	1.686	62.918	0.517	1	0.462	0.538	0.6267	34	2.0954	0.0165	0.004
64.9363	0.8006	AB	A	Correct	0.791	66.0372	0.5171	1	0.3332	0.6668	0.5194	12	2.0954	0.0165	0.004
68.4725	0.9007	FE	E	Correct	0.886	69.6735	0.5171	-1	-0.5542	0.5542	0.5789	56	2.0954	0.0165	0.004
73.4932	1.7515	AB	A	Correct	1.738	75.5449	0.5171	1	0.3277	0.6723	0.5194	12	2.0954	0.0165	0.004
76.5291	1.0508	FE	E	Correct	1.033	77.8802	0.517	1	0.448	0.552	0.5789	56	2.0954	0.0165	0.004
80.5657	1.3177	BA	B	Incorrect	1.307	82.1837	0.517	-1	-0.5194	0.5194	0.6777	12	2.0954	0.0165	0.004
90.0901	1.2677	EF	F	Incorrect	1.25	91.658	0.5171	-1	-0.5789	0.5789	0.5594	56	2.0954	0.0165	0.004
94.11	1.3178	BA	A	Correct	1.31	95.728	0.5171	1	0.3223	0.6777	0.5173	12	2.0954	0.0165	0.004
97.1292	2.035	FE	E	Correct	2.023	99.4644	0.5171	1	0.4406	0.5594	0.5766	56	2.0954	0.0165	0.004
105.1524	1.6513	EF	E	Correct	1.635	107.104	0.517	1	0.4334	0.5666	0.5766	56	2.0954	0.0165	0.004
108.6886	1.4345	BA	A	Correct	1.424	110.4233	0.5171	1	0.3169	0.6831	0.5173	12	2.0954	0.0165	0.004
113.2089	1.0342	CD	D	Incorrect	1.026	114.5434	0.517	-1	-0.5457	0.5457	0.6267	34	2.0954	0.0165	0.004
121.2321	0.9675	EF	E	Correct	0.96	122.4998	0.5171	-1	-0.5738	0.5738	0.5766	56	2.0954	0.0165	0.004
126.2529	1.1343	FE	E	Correct	1.129	127.6874	0.5171	-1	-0.5715	0.5715	0.5766	56	2.0954	0.0165	0.004
130.2728	0.8674	BA	A	Correct	0.851	131.4405	0.517	1	0.3117	0.6883	0.5173	12	2.0954	0.0165	0.004
132.8082	2.1018	FE	F	Incorrect	2.092	135.2102	0.5171	1	0.4234	0.5766	0.5692	56	2.0954	0.0165	0.004
138.3294	1.0509	EF	E	Correct	1.043	139.6805	0.5171	1	0.4308	0.5692	0.5836	56	2.0954	0.0165	0.004
141.8489	1.2844	AB	A	Correct	1.282	143.4336	0.5171	1	0.3066	0.6934	0.5173	12	2.0954	0.0165	0.004
144.8847	0.9341	AB	A	Correct	0.93	146.1191	0.5171	1	0.3015	0.6985	0.5173	12	2.0954	0.0165	0.004
152.9246	0.9508	FE	E	Correct	0.933	154.1757	0.517	-1	-0.5763	0.5763	0.5836	56	2.0954	0.0165	0.004
157.9454	1.9849	FE	E	Correct	1.978	160.2306	0.5171	1	0.426	0.574	0.5836	56	2.0954	0.0165	0.004
161.9653	1.2511	CD	C	Correct	1.239	163.5166	0.5171	-1	-0.6267	0.6267	0.5435	34	2.0954	0.0165	0.004
166.4857	1.201	DC	C	Correct	1.195	167.9869	0.5171	1	0.3758	0.6242	0.5435	34	2.0954	0.0165	0.004
170.0052	1.2677	FE	E	Correct	1.25	171.5732	0.517	-1	-0.581	0.581	0.5836	56	2.0954	0.0165	0.004
173.5248	0.9007	BA	B	Incorrect	0.89	174.7257	0.5171	-1	-0.5173	0.5173	0.7035	12	2.0954	0.0165	0.004
177.5447	1.7514	BA	A	Correct	1.742	179.5964	0.5171	1	0.2965	0.7035	0.5152	12	2.0954	0.0165	0.004
182.5654	1.0342	DC	D	Incorrect	1.02	183.8999	0.5171	-1	-0.5435	0.5435	0.6304	34	2.0954	0.0165	0.004
186.5854	1.4512	CD	C	Correct	1.437	188.3368	0.5171	1	0.3696	0.6304	0.5413	34	2.0954	0.0165	0.004
189.6045	1.6347	CD	D	Incorrect	1.616	191.5227	0.5171	-1	-0.5413	0.5413	0.6365	34	2.0954	0.0165	0.004
193.6411	1.4345	DC	C	Correct	1.429	195.3759	0.5171	1	0.3635	0.6365	0.5391	34	2.0954	0.0165	0.004
201.1806	0.5838	FE	F	Incorrect	0.57	202.0647	0.5171	-1	-0.5836	0.5836	0.5786	56	2.0954	0.0165	0.004
206.2014	0.6505	FE	E	Correct	0.639	207.1522	0.517	1	0.4214	0.5786	0.5812	56	2.0954	0.0165	0.004
214.725	0.6005	CD	C	Correct	0.593	215.6257	0.5171	1	0.3575	0.6425	0.5391	34	2.0954	0.0165	0.004
217.7441	0.9842	DC	C	Correct	0.979	219.0285	0.5171	1	0.3516	0.6484	0.5391	34	2.0954	0.0165	0.004
226.7681	2.0684	DC	C	Correct	2.053	229.1367	0.1502	1	0.3458	0.6542	0.5391	34	2.0954	0.0165	0.004
230.2877	2.0016	CD	D	Incorrect	1.992	232.5895	0.5171	-1	-0.5391	0.5391	0.6599	34	2.0954	0.0165	0.004
237.8105	1.5346	EF	E	Correct	1.517	239.6453	0.5171	1	0.4144	0.5856	0.5812	56	2.0954	0.0165	0.004
242.3308	1.5513	FE	F	Incorrect	1.533	244.1656	0.5171	-1	-0.5812	0.5812	0.5924	56	2.0954	0.0165	0.004
246.3508	1.5179	FE	E	Correct	1.51	248.1689	0.5171	-1	-0.5924	0.5924	0.5789	56	2.0954	0.0165	0.004
250.3707	1.1676	BA	A	Correct	1.163	251.8386	0.517	1	0.2916	0.7084	0.5152	12	2.0954	0.0165	0.004
253.8902	1.2677	BA	A	Correct	1.255	255.4582	0.5171	-1	-0.7132	0.7132	0.5152	12	2.0954	0.0165	0.004
257.9102	1.7681	FE	E	Correct	1.763	259.9785	0.5171	1	0.4099	0.5901	0.5789	56	2.0954	0.0165	0.004
266.9342	1.4512	EF	E	Correct	1.441	268.6856	0.5171	1	0.4032	0.5968	0.5789	56	2.0954	0.0165	0.004
270.9541	1.0009	EF	F	Incorrect	0.999	272.2552	0.5171	-1	-0.5789	0.5789	0.6035	56	2.0954	0.0165	0.004
273.4895	1.4846	BA	B	Incorrect	1.482	275.2743	0.5171	-1	-0.5152	0.5152	0.7103	12	2.0954	0.0165	0.004
278.4936	0.784	AB	B	Incorrect	0.774	279.5778	0.5171	-1	-0.5131	0.5131	0.7103	12	2.0954	0.0165	0.004
282.5136	0.6672	EF	E	Correct	0.655	283.481	0.5171	1	0.3965	0.6035	0.5766	56	2.0954	0.0165	0.004
286.0331	0.6839	BA	A	Correct	0.68	287.0172	0.5171	1	0.2897	0.7103	0.5111	12	2.0954	0.0165	0.004
289.5693	1.5012	EF	F	Incorrect	1.497	291.3708	0.5171	-1	-0.5766	0.5766	0.61	56	2.0954	0.0165	0.004
295.0905	1.1175	DC	C	Correct	1.113	296.5083	0.5171	-1	-0.6599	0.6599	0.5369	34	2.0954	0.0165	0.004
297.6259	1.2844	AB	A	Correct	1.277	299.2105	0.5171	-1	-0.7151	0.7151	0.5111	12	2.0954	0.0165	0.004
303.147	2.5021	CD	n/a	omission	0	305.9493	0.5171	0	0	0	0	0	2.0954	0.0165	0.004
309.6523	1.3845	CD	D	Incorrect	1.382	311.337	0.5171	1	0.4631	0.5369	0.6572	34	2.0954	0.0165	0.004
312.6715	2.0016	CD	C	Correct	1.987	314.9733	0.5171	1	0.3428	0.6572	0.5446	34	2.0954	0.0165	0.004
316.6914	1.5513	FE	F	Incorrect	1.535	318.5429	0.5171	-1	-0.5742	0.5742	0.61	56	2.0954	0.0165	0.004
321.2118	1.0175	AB	B	Incorrect	1.009	322.5295	0.5171	-1	-0.5111	0.5111	0.7122	12	2.0954	0.0165	0.004
324.2476	1.5846	EF	E	Correct	1.581	326.1324	0.5171	-1	-0.61	0.61	0.5719	56	2.0954	0.0165	0.004
328.2842	2.5854	BA	A	Correct	2.583	331.1699	0.5171	1	0.2878	0.7122	0.509	12	2.0954	0.0165	0.004
337.3082	1.3177	EF	F	Incorrect	1.313	338.9262	0.5171	-1	-0.5719	0.5719	0.6076	56	2.0954	0.0165	0.004
345.3314	1.5179	BA	B	Incorrect	1.514	347.1496	0.517	-1	-0.509	0.509	0.717	12	2.0954	0.0165	0.004
349.3513	1.0843	CD	C	Correct	1.071	350.7358	0.5171	-1	-0.6629	0.6629	0.5446	34	2.0954	0.0165	0.004
353.8717	0.784	FE	E	Correct	0.771	354.9559	0.5171	-1	-0.6076	0.6076	0.5696	56	2.0954	0.0165	0.004
356.4071	1.1176	EF	E	Correct	1.105	357.8249	0.5171	-1	-0.6051	0.6051	0.5696	56	2.0954	0.0165	0.004
360.9274	1.3345	EF	E	Correct	1.326	362.5621	0.5171	1	0.3973	0.6027	0.5696	56	2.0954	0.0165	0.004
364.4637	3.3193	CD	C	Correct	3.306	368.0833	0.4003	1	0.3398	0.6602	0.5446	34	2.0954	0.0165	0.004
369.4844	1.4679	DC	C	Correct	1.462	371.2525	0.5171	-1	-0.6658	0.6658	0.5446	34	2.0954	0.0165	0.004
376.5235	0.8006	AB	A	Correct	0.785	377.6244	0.5171	1	0.283	0.717	0.507	12	2.0954	0.0165	0.004
382.0447	0.6338	CD	D	Incorrect	0.623	382.9787	0.5171	-1	-0.5446	0.5446	0.6632	34	2.0954	0.0165	0.004
390.0679	1.4845	BA	B	Incorrect	1.47	391.8526	0.5171	-1	-0.507	0.507	0.7216	12	2.0954	0.0165	0.004
393.087	2.3352	DC	C	Correct	2.332	395.7225	0.5171	1	0.3368	0.6632	0.5424	34	2.0954	0.0165	0.004
398.1077	0.9341	BA	A	Correct	0.932	399.3421	0.5171	1	0.2784	0.7216	0.5049	12	2.0954	0.0165	0.004
400.6431	2.035	BA	B	Incorrect	2.026	402.9784	0.5171	-1	-0.5049	0.5049	0.7262	12	2.0954	0.0165	0.004
413.6871	0.9174	AB	A	Correct	0.914	414.9048	0.517	1	0.2738	0.7262	0.5029	12	2.0954	0.0165	0.004
417.707	1.0676	CD	D	Incorrect	1.062	419.0748	0.5171	1	0.4576	0.5424	0.6687	34	2.0954	0.0165	0.004
421.727	1.8515	DC	C	Correct	1.843	423.8787	0.5171	1	0.3313	0.6687	0.5499	34	2.0954	0.0165	0.004
425.2465	1.7681	EF	E	Correct	1.763	427.3149	0.5171	1	0.3908	0.6092	0.5696	56	2.0954	0.0165	0.004
429.2665	1.2843	CD	C	Correct	1.268	430.8511	0.5171	1	0.3258	0.6742	0.5499	34	2.0954	0.0165	0.004
432.8027	1.251	DC	D	Incorrect	1.233	434.3539	0.5171	-1	-0.5499	0.5499	0.6795	34	2.0954	0.0165	0.004
437.323	1.0342	FE	F	Incorrect	1.027	438.6575	0.517	-1	-0.5696	0.5696	0.6157	56	2.0954	0.0165	0.004
441.343	1.0675	AB	A	Correct	1.06	442.7107	0.5171	1	0.2693	0.7307	0.5029	12	2.0954	0.0165	0.004
450.367	2.502	DC	n/a	omission	0	453.1693	0.5171	0	0	0	0	0	2.0954	0.0165	0.004
456.8723	1.8015	BA	A	Correct	1.79	458.974	0.417	1	0.2648	0.7352	0.5029	12	2.0954	0.0165	0.004
464.4118	0.8173	CD	C	Correct	0.809	465.5293	0.5171	1	0.3205	0.6795	0.5477	34	2.0954	0.0165	0.004
468.9321	2.5021	CD	n/a	omission	0	471.7344	0.5171	0	0	0	0	0	2.0954	0.0165	0.004
474.937	0.9007	AB	A	Correct	0.888	476.138	0.5171	1	0.2605	0.7395	0.5029	12	2.0954	0.0165	0.004
479.4574	1.0341	CD	C	Correct	1.029	480.7918	0.5171	-1	-0.6848	0.6848	0.5477	34	2.0954	0.0165	0.004
481.9928	1.1342	BA	A	Correct	1.131	483.4273	0.517	-1	-0.7438	0.7438	0.5029	12	2.0954	0.0165	0.004
486.0294	1.2677	FE	F	Incorrect	1.257	487.5973	0.5171	-1	-0.5673	0.5673	0.6157	56	2.0954	0.0165	0.004
490.5497	1.0509	DC	C	Correct	1.048	491.9008	0.5171	1	0.3179	0.6821	0.5477	34	2.0954	0.0165	0.004
494.0859	1.4179	DC	D	Incorrect	1.416	495.804	0.5171	-1	-0.5477	0.5477	0.6873	34	2.0954	0.0165	0.004
499.09	1.3511	BA	A	Correct	1.339	500.7414	0.5171	1	0.2592	0.7408	0.5029	12	2.0954	0.0165	0.004
503.11	1.5512	CD	D	Incorrect	1.537	504.9615	0.5171	-1	-0.5455	0.5455	0.6873	34	2.0954	0.0165	0.004
507.6303	0.8674	CD	C	Correct	0.853	508.7979	0.5171	1	0.3127	0.6873	0.5433	34	2.0954	0.0165	0.004
511.1498	0.6839	EF	F	Incorrect	0.667	512.134	0.5171	-1	-0.5651	0.5651	0.6157	56	2.0954	0.0165	0.004
515.6702	0.7339	CD	C	Correct	0.722	516.7044	0.5171	-1	-0.6925	0.6925	0.5433	34	2.0954	0.0165	0.004
523.6934	1.0008	FE	E	Correct	0.982	524.9945	0.517	1	0.3843	0.6157	0.5628	56	2.0954	0.0165	0.004
526.7292	0.9841	BA	A	Correct	0.977	528.0136	0.5171	1	0.2549	0.7451	0.5029	12	2.0954	0.0165	0.004
531.2496	0.6838	EF	E	Correct	0.673	532.2337	0.5171	-1	-0.622	0.622	0.5628	56	2.0954	0.0165	0.004
534.2854	1.3844	EF	E	Correct	1.376	535.9701	0.5171	1	0.3805	0.6195	0.5628	56	2.0954	0.0165	0.004
538.8057	1.4012	CD	C	Correct	1.39	540.5071	0.5171	-1	-0.6897	0.6897	0.5433	34	2.0954	0.0165	0.004
542.3419	1.4345	AB	A	Correct	1.42	544.0767	0.5171	1	0.2507	0.7493	0.5029	12	2.0954	0.0165	0.004
547.8631	1.7681	CD	D	Incorrect	1.762	549.9314	0.4504	-1	-0.5433	0.5433	0.6869	34	2.0954	0.0165	0.004
551.883	1.4679	DC	C	Correct	1.454	553.6511	0.5171	1	0.3131	0.6869	0.5412	34	2.0954	0.0165	0.004
555.903	1.0008	EF	E	Correct	0.982	557.1874	0.517	1	0.3742	0.6258	0.5628	56	2.0954	0.0165	0.004
562.4583	1.0842	EF	F	Incorrect	1.071	563.8428	0.5171	-1	-0.5628	0.5628	0.632	56	2.0954	0.0165	0.004
566.9787	1.1009	AB	A	Correct	1.096	568.3798	0.5171	-1	-0.7535	0.7535	0.5029	12	2.0954	0.0165	0.004
571.499	1.4012	FE	E	Correct	1.385	573.2004	0.5171	1	0.368	0.632	0.5605	56	2.0954	0.0165	0.004
575.519	0.9007	FE	E	Correct	0.887	576.7199	0.5171	-1	-0.638	0.638	0.5605	56	2.0954	0.0165	0.004
578.5548	0.9341	CD	C	Correct	0.923	579.7891	0.5171	1	0.3079	0.6921	0.5412	34	2.0954	0.0165	0.004
584.0759	0.8007	AB	A	Correct	0.783	585.1768	0.5171	-1	-0.7504	0.7504	0.5029	12	2.0954	0.0165	0.004
587.5955	1.4678	FE	E	Correct	1.465	589.3636	0.5171	1	0.3645	0.6355	0.5605	56	2.0954	0.0165	0.004
591.6154	1.1676	BA	A	Correct	1.157	593.0833	0.5171	-1	-0.7474	0.7474	0.5029	12	2.0954	0.0165	0.004
595.1349	1.4512	AB	A	Correct	1.439	596.8864	0.5171	1	0.2556	0.7444	0.5029	12	2.0954	0.0165	0.004
599.1549	1.0675	BA	A	Correct	1.064	600.5227	0.5171	1	0.2514	0.7486	0.5029	12	2.0954	0.0165	0.004
603.1748	0.9675	AB	A	Correct	0.96	604.4425	0.5171	1	0.2472	0.7528	0.5029	12	2.0954	0.0165	0.004
606.711	1.7515	EF	F	Incorrect	1.742	608.7627	0.5171	1	0.4395	0.5605	0.6415	56	2.0954	0.0165	0.004
611.2314	1.7848	CD	C	Correct	1.772	613.3164	0.5171	1	0.3028	0.6972	0.5412	34	2.0954	0.0165	0.004
615.7517	2.3686	EF	F	Incorrect	2.351	618.4206	0.3503	1	0.4322	0.5678	0.6415	56	2.0954	0.0165	0.004
619.2713	2.6855	BA	A	Correct	2.679	622.257	0.5171	1	0.2431	0.7569	0.5029	12	2.0954	0.0165	0.004
623.2912	2.2352	BA	A	Correct	2.223	625.8266	0.5171	1	0.2391	0.7609	0.5029	12	2.0954	0.0165	0.004
627.8116	1.6013	CD	D	Incorrect	1.587	629.7131	0.5171	-1	-0.5412	0.5412	0.7022	34	2.0954	0.0165	0.004
632.3319	2.5021	FE	n/a	omission	0	635.1342	0.5171	0	0	0	0	0	2.0954	0.0165	0.004
637.8364	0.6505	EF	E	Correct	0.644	638.7872	0.5171	-1	-0.6415	0.6415	0.5749	56	2.0954	0.0165	0.004
641.8563	0.9508	CD	C	Correct	0.938	643.1074	0.5171	1	0.2978	0.7022	0.539	34	2.0954	0.0165	0.004
645.3926	1.668	EF	F	Incorrect	1.657	647.3608	0.5171	1	0.4251	0.5749	0.6389	56	2.0954	0.0165	0.004
650.9137	1.0342	DC	D	Incorrect	1.018	652.2481	0.5171	-1	-0.539	0.539	0.7071	34	2.0954	0.0165	0.004
657.4524	1.0675	DC	D	Incorrect	1.062	658.8202	0.5171	-1	-0.5368	0.5368	0.7071	34	2.0954	0.0165	0.004
662.9735	0.8341	AB	A	Correct	0.818	664.1078	0.5171	1	0.2352	0.7648	0.5029	12	2.0954	0.0165	0.004
665.9927	1.3678	FE	E	Correct	1.363	667.6607	0.5171	1	0.3611	0.6389	0.5819	56	2.0954	0.0165	0.004
669.5289	1.1009	DC	C	Correct	1.098	670.93	0.5171	1	0.2929	0.7071	0.5347	34	2.0954	0.0165	0.004
674.0492	1.1343	CD	D	Incorrect	1.118	675.4837	0.5171	-1	-0.5347	0.5347	0.7119	34	2.0954	0.0165	0.004
679.07	2.502	CD	n/a	omission	0	681.8723	0.5171	0	0	0	0	0	2.0954	0.0165	0.004
