onset	duration	RT	Trial_type	Response	SSD
0.5713	0.5171	820	Go	correct	n/a
4.5746	0.5171	307	Go	Incorrect	n/a
8.0941	0.5171	388	Go	correct	n/a
13.5819	0.5171	0	Stop	succesful_stop	200
17.5852	0.5171	605	Go	correct	n/a
20.5877	0.517	478	Go	correct	n/a
24.1072	0.5171	0	Stop	succesful_stop	250
29.595	0.5171	462	Stop	Failed_stop	300
32.5974	0.5171	688	Go	correct	n/a
37.6015	0.5171	533	Go	correct	n/a
41.1044	0.5171	495	Go	correct	n/a
45.608	0.5171	457	Go	Incorrect	n/a
49.1109	0.5171	668	Stop	Failed_stop	350
53.1142	0.517	0	Stop	succesful_stop	400
56.617	0.5171	524	Go	correct	n/a
61.6211	0.5171	487	Go	correct	n/a
64.6235	0.5171	574	Go	correct	n/a
69.1272	0.5171	531	Go	correct	n/a
72.1463	0.5171	0	Go	omission	n/a
78.1512	0.5171	554	Go	correct	n/a
82.1545	0.5171	547	Go	correct	n/a
87.1419	0.5171	490	Go	Incorrect	n/a
90.161	0.5171	686	Go	correct	n/a
94.648	0.5171	508	Go	correct	n/a
98.1675	0.5171	655	Go	correct	n/a
103.1549	0.5171	583	Go	Incorrect	n/a
106.6578	0.5171	532	Go	Incorrect	n/a
111.1615	0.517	512	Stop	Failed_stop	450
114.1806	0.5171	519	Stop	Failed_stop	500
119.6684	0.5171	1018	Go	correct	n/a
123.1712	0.5171	318	Go	Incorrect	n/a
127.6749	0.5171	345	Go	correct	n/a
130.6774	0.5171	675	Go	correct	n/a
134.6806	0.5171	354	Go	correct	n/a
139.6847	0.5171	308	Go	Incorrect	n/a
146.2067	0.5171	508	Go	correct	n/a
151.1941	0.5171	474	Stop	Failed_stop	500
159.701	0.5171	510	Stop	Failed_stop	450
163.7043	0.5171	427	Stop	Failed_stop	400
166.223	0.5171	0	Stop	succesful_stop	350
171.2104	0.5171	534	Go	correct	n/a
175.7141	0.5171	442	Go	correct	n/a
178.2328	0.5171	485	Go	correct	n/a
182.7198	0.5171	350	Go	correct	n/a
187.7239	0.517	414	Stop	Failed_stop	300
191.7271	0.5171	447	Go	correct	n/a
195.23	0.5171	329	Go	Incorrect	n/a
198.2491	0.5171	420	Go	correct	n/a
203.2365	0.5171	517	Go	correct	n/a
207.2398	0.517	1489	Go	correct	n/a
211.243	0.5171	400	Stop	Failed_stop	250
215.2463	0.5171	941	Go	correct	n/a
219.75	0.517	547	Go	correct	n/a
222.2687	0.5171	598	Go	correct	n/a
226.7557	0.5171	527	Go	correct	n/a
230.7589	0.5171	425	Go	Incorrect	n/a
234.7622	0.5171	489	Go	correct	n/a
239.7663	0.5171	447	Stop	Failed_stop	200
242.7687	0.5171	0	Stop	succesful_stop	150
247.2724	0.5171	0	Stop	succesful_stop	100
250.2915	0.5171	0	Stop	succesful_stop	50
255.7793	0.5171	0	Stop	succesful_stop	50
262.785	0.5171	563	Go	correct	n/a
267.2887	0.5171	0	Stop	succesful_stop	50
271.292	0.517	505	Go	Incorrect	n/a
274.7948	0.5171	621	Go	correct	n/a
279.2985	0.5171	511	Go	correct	n/a
283.3017	0.5171	406	Go	Incorrect	n/a
286.3209	0.5171	0	Stop	succesful_stop	50
290.8079	0.5171	0	Stop	succesful_stop	100
294.3274	0.5171	0	Stop	succesful_stop	150
298.8144	0.5171	472	Go	correct	n/a
303.3181	0.517	445	Stop	Failed_stop	200
306.8209	0.5171	0	Stop	succesful_stop	250
311.3246	0.5171	686	Go	Incorrect	n/a
315.8283	0.517	496	Go	correct	n/a
318.8307	0.5171	587	Go	Incorrect	n/a
323.3344	0.5171	493	Stop	Failed_stop	300
326.8372	0.5171	504	Go	correct	n/a
331.3409	0.5171	435	Stop	Failed_stop	350
335.8446	0.517	571	Go	correct	n/a
339.3474	0.5171	303	Go	correct	n/a
343.8511	0.5171	425	Go	correct	n/a
346.8535	0.5171	621	Go	correct	n/a
351.8576	0.5171	467	Go	correct	n/a
355.3605	0.5171	580	Go	correct	n/a
359.8641	0.5171	470	Go	correct	n/a
362.8666	0.5171	478	Go	correct	n/a
366.8698	0.5171	483	Stop	Failed_stop	400
370.3894	0.5171	540	Stop	Failed_stop	400
378.8796	0.5171	508	Stop	Failed_stop	350
383.3833	0.5171	485	Go	Incorrect	n/a
386.8862	0.517	530	Go	correct	n/a
390.8894	0.5171	530	Go	correct	n/a
395.8935	0.5171	0	Stop	succesful_stop	300
399.8968	0.517	669	Go	Incorrect	n/a
402.4155	0.5171	389	Go	Incorrect	n/a
406.9025	0.5171	382	Stop	Failed_stop	250
411.4061	0.5171	506	Go	correct	n/a
415.9098	0.5171	358	Stop	Failed_stop	200
418.9123	0.517	391	Go	Incorrect	n/a
422.9155	0.5171	0	Stop	succesful_stop	150
431.9229	0.517	956	Go	Incorrect	n/a
434.9253	0.5171	554	Go	correct	n/a
439.429	0.5171	0	Stop	succesful_stop	100
447.9359	0.5171	542	Go	correct	n/a
451.9392	0.5171	0	Stop	succesful_stop	50
455.9424	0.5171	394	Go	Incorrect	n/a
459.4453	0.5171	787	Go	correct	n/a
462.4644	0.5171	306	Go	correct	n/a
471.4551	0.5171	431	Go	Incorrect	n/a
474.4742	0.5171	0	Stop	succesful_stop	50
482.4807	0.5171	512	Go	Incorrect	n/a
486.484	0.5171	656	Go	correct	n/a
491.4714	0.5171	458	Stop	Failed_stop	100
495.9751	0.517	524	Go	correct	n/a
503.4812	0.5171	464	Stop	Failed_stop	100
506.984	0.5171	0	Stop	succesful_stop	50
510.5036	0.517	559	Go	Incorrect	n/a
515.491	0.517	491	Go	correct	n/a
518.9938	0.5171	514	Go	correct	n/a
523.9979	0.5171	373	Go	correct	n/a
528.0012	0.517	493	Go	correct	n/a
530.5199	0.5171	0	Stop	succesful_stop	50
535.5073	0.5171	0	Stop	succesful_stop	100
539.5105	0.5171	521	Go	correct	n/a
544.0142	0.5171	707	Go	correct	n/a
546.5329	0.5171	572	Go	Incorrect	n/a
551.0199	0.5171	515	Go	Incorrect	n/a
556.024	0.5171	0	Stop	succesful_stop	150
560.0272	0.5171	0	Stop	succesful_stop	200
564.0305	0.5171	511	Stop	Failed_stop	250
567.5334	0.517	0	Stop	succesful_stop	300
570.5525	0.5171	527	Go	correct	n/a
576.0403	0.5171	564	Go	correct	n/a
582.5623	0.5171	503	Go	Incorrect	n/a
592.0533	0.5171	503	Go	correct	n/a
594.5721	0.5171	595	Go	correct	n/a
599.5595	0.517	630	Go	Incorrect	n/a
603.5627	0.5171	556	Go	correct	n/a
608.0664	0.5171	528	Go	Incorrect	n/a
615.5725	0.5171	615	Go	correct	n/a
624.0794	0.5171	503	Go	Incorrect	n/a
628.0827	0.5171	0	Stop	succesful_stop	350
635.0884	0.5171	534	Go	correct	n/a
638.6079	0.5171	508	Stop	Failed_stop	400
647.0982	0.5171	488	Stop	Failed_stop	450
652.1023	0.5171	544	Stop	Failed_stop	500
655.6051	0.5171	669	Stop	Failed_stop	550
659.6084	0.5171	515	Go	correct	n/a
