onset	duration	RT	Trial_type	Response	SSD
0.5504	0.5171	1066	Go	correct	n/a
5.5545	0.517	539	Go	correct	n/a
9.5577	0.5171	679	Stop	Failed_stop	200
12.5601	0.5171	752	Go	correct	n/a
17.5641	0.5171	0	Stop	succesful_stop	200
25.0701	0.5171	722	Go	correct	n/a
29.0734	0.517	0	Stop	succesful_stop	250
36.5794	0.5171	647	Go	correct	n/a
41.5834	0.5171	803	Go	correct	n/a
49.0894	0.5171	582	Go	correct	n/a
52.5923	0.517	741	Go	correct	n/a
56.5955	0.5171	836	Go	correct	n/a
61.0991	0.5171	692	Go	correct	n/a
65.1023	0.5171	523	Go	correct	n/a
69.1055	0.5171	0	Stop	succesful_stop	300
73.1087	0.5171	998	Go	correct	n/a
77.6124	0.5171	693	Go	correct	n/a
80.1311	0.517	559	Go	correct	n/a
85.1184	0.5171	922	Go	correct	n/a
89.1216	0.5171	546	Stop	Failed_stop	350
92.6244	0.5171	583	Go	correct	n/a
97.128	0.5171	674	Go	correct	n/a
101.1313	0.5171	644	Go	correct	n/a
104.6341	0.5171	633	Go	correct	n/a
109.1377	0.5171	760	Go	correct	n/a
112.1568	0.5171	851	Go	correct	n/a
117.1441	0.5171	649	Go	correct	n/a
120.1632	0.5171	1187	Go	Incorrect	n/a
124.6502	0.517	616	Go	correct	n/a
128.6534	0.5171	593	Go	correct	n/a
133.6574	0.5171	701	Go	Incorrect	n/a
137.1602	0.5171	581	Go	correct	n/a
140.663	0.5171	1168	Go	Incorrect	n/a
145.6671	0.517	768	Go	Incorrect	n/a
148.1857	0.5171	782	Stop	Failed_stop	400
157.1763	0.5171	746	Stop	Failed_stop	450
161.1795	0.5171	636	Go	correct	n/a
164.1986	0.5171	754	Go	correct	n/a
169.6864	0.517	1489	Go	Incorrect	n/a
173.1892	0.5171	0	Stop	succesful_stop	450
177.6928	0.5171	787	Stop	Failed_stop	500
184.6984	0.5171	687	Go	correct	n/a
189.7024	0.5171	567	Go	correct	n/a
193.7057	0.517	570	Go	correct	n/a
196.7081	0.5171	522	Go	correct	n/a
200.7113	0.5171	733	Go	correct	n/a
205.7153	0.5171	635	Go	correct	n/a
208.234	0.5171	540	Go	correct	n/a
212.2372	0.5171	487	Go	correct	n/a
217.725	0.517	498	Stop	Failed_stop	500
221.2278	0.5171	530	Stop	Failed_stop	450
225.231	0.5171	502	Stop	Failed_stop	400
229.2342	0.5171	0	Stop	succesful_stop	350
233.7378	0.5171	482	Stop	Failed_stop	300
237.741	0.5171	1087	Go	correct	n/a
245.7475	0.5171	590	Go	correct	n/a
248.7499	0.5171	594	Go	correct	n/a
252.2694	0.5171	713	Go	correct	n/a
261.2599	0.5171	1048	Go	correct	n/a
265.7636	0.517	0	Stop	succesful_stop	250
269.2664	0.5171	909	Go	correct	n/a
273.77	0.5171	0	Stop	succesful_stop	200
277.7732	0.5171	0	Stop	succesful_stop	150
280.2919	0.5171	0	Stop	succesful_stop	150
284.7788	0.5171	631	Go	correct	n/a
288.7821	0.517	687	Go	correct	n/a
293.2857	0.5171	681	Go	correct	n/a
296.7885	0.5171	527	Go	correct	n/a
300.308	0.5171	0	Stop	succesful_stop	200
304.3112	0.5171	618	Go	correct	n/a
309.2985	0.5171	656	Go	correct	n/a
312.8014	0.517	564	Go	correct	n/a
317.305	0.5171	0	Stop	succesful_stop	250
324.811	0.5171	0	Stop	succesful_stop	300
328.8142	0.5171	730	Go	correct	n/a
332.3337	0.5171	598	Go	correct	n/a
336.8207	0.517	0	Stop	succesful_stop	350
341.8247	0.5171	632	Stop	Failed_stop	400
344.8271	0.5171	1082	Go	correct	n/a
349.8311	0.5171	624	Go	correct	n/a
353.3339	0.5171	495	Go	correct	n/a
357.3371	0.5171	603	Go	correct	n/a
361.8408	0.517	539	Stop	Failed_stop	450
365.3436	0.5171	571	Go	correct	n/a
368.8464	0.5171	588	Go	correct	n/a
373.35	0.5171	561	Go	correct	n/a
376.3691	0.5171	1168	Stop	Failed_stop	500
380.3723	0.5171	1374	Go	correct	n/a
384.3755	0.5171	856	Go	correct	n/a
389.3629	0.5171	615	Stop	Failed_stop	550
393.8665	0.5171	612	Stop	Failed_stop	600
396.3852	0.5171	620	Stop	Failed_stop	600
405.8762	0.517	1224	Go	correct	n/a
409.379	0.517	745	Go	correct	n/a
413.3822	0.5171	779	Stop	Failed_stop	550
416.4013	0.5171	616	Go	correct	n/a
421.889	0.5171	685	Go	correct	n/a
424.8914	0.5171	599	Go	correct	n/a
428.4109	0.5171	690	Stop	Failed_stop	500
436.4174	0.517	581	Go	correct	n/a
440.9043	0.5171	520	Go	correct	n/a
445.9083	0.5171	689	Go	correct	n/a
448.427	0.5171	609	Go	correct	n/a
452.4302	0.5171	0	Stop	succesful_stop	450
457.918	0.5171	675	Go	correct	n/a
461.4208	0.5171	0	Stop	succesful_stop	400
464.4399	0.5171	811	Go	correct	n/a
468.4431	0.5171	0	Stop	succesful_stop	350
473.4304	0.5171	781	Go	correct	n/a
477.4336	0.5171	827	Go	correct	n/a
484.456	0.517	0	Stop	succesful_stop	350
489.9437	0.5171	536	Go	correct	n/a
492.9461	0.5171	590	Go	correct	n/a
497.9501	0.5171	757	Go	correct	n/a
500.9526	0.517	0	Stop	succesful_stop	400
505.4562	0.5171	849	Stop	Failed_stop	450
509.9598	0.5171	681	Stop	Failed_stop	500
512.4785	0.5171	796	Go	correct	n/a
516.4817	0.5171	685	Go	correct	n/a
521.9694	0.5171	1243	Go	Incorrect	n/a
525.9727	0.517	613	Go	correct	n/a
532.9783	0.5171	594	Go	correct	n/a
537.4819	0.5171	527	Go	correct	n/a
540.501	0.5171	740	Go	correct	n/a
549.992	0.517	608	Go	correct	n/a
557.498	0.5171	525	Stop	Failed_stop	500
562.0016	0.5171	602	Go	correct	n/a
565.004	0.5171	620	Stop	Failed_stop	450
570.008	0.5171	0	Stop	succesful_stop	400
573.0105	0.517	818	Go	correct	n/a
578.0145	0.5171	960	Go	correct	n/a
581.0169	0.5171	0	Stop	succesful_stop	350
585.5205	0.5171	724	Go	correct	n/a
590.0241	0.5171	0	Stop	succesful_stop	350
593.0265	0.5171	0	Stop	succesful_stop	400
601.5334	0.5171	576	Stop	Failed_stop	450
605.0362	0.5171	0	Stop	succesful_stop	500
609.5398	0.5171	0	Stop	succesful_stop	550
612.5589	0.5171	865	Stop	Failed_stop	600
617.0458	0.5171	739	Go	correct	n/a
622.0499	0.517	586	Go	correct	n/a
626.0531	0.5171	750	Go	correct	n/a
629.5559	0.5171	666	Go	correct	n/a
633.0587	0.5171	0	Stop	succesful_stop	650
637.0619	0.5171	717	Stop	Failed_stop	700
641.0651	0.5171	851	Go	correct	n/a
646.0692	0.517	860	Stop	Failed_stop	750
650.0724	0.5171	940	Go	correct	n/a
652.5911	0.5171	935	Go	correct	n/a
658.0788	0.5171	744	Go	correct	n/a
