onset	duration	RT	Trial_type	Response	SSD
0.5171	0.5171	644	Go	correct	n/a
5.0207	0.5171	0	Stop	succesful_stop	200
8.5235	0.5171	498	Go	correct	n/a
13.0271	0.5171	543	Go	correct	n/a
17.0303	0.5171	559	Stop	Failed_stop	250
20.5331	0.5171	620	Go	correct	n/a
28.0558	0.5171	506	Go	correct	n/a
32.059	0.5171	529	Go	correct	n/a
36.0622	0.5171	540	Go	correct	n/a
44.5523	0.5171	462	Stop	Failed_stop	300
49.5563	0.5171	554	Go	correct	n/a
52.5587	0.5171	698	Go	Incorrect	n/a
56.5619	0.5171	642	Go	correct	n/a
65.5691	0.5171	530	Go	correct	n/a
68.5715	0.5171	569	Go	correct	n/a
73.0752	0.517	501	Stop	Failed_stop	300
76.0942	0.5171	0	Stop	succesful_stop	250
80.0974	0.5171	470	Go	Incorrect	n/a
84.1006	0.5171	668	Go	correct	n/a
88.1038	0.5171	474	Go	correct	n/a
93.5916	0.5171	611	Stop	Failed_stop	250
97.5948	0.5171	0	Stop	succesful_stop	200
101.0976	0.5171	0	Stop	succesful_stop	200
105.6012	0.5171	639	Go	correct	n/a
109.6044	0.5171	548	Go	correct	n/a
112.6068	0.5171	542	Go	correct	n/a
116.1263	0.5171	0	Stop	succesful_stop	250
121.614	0.5171	685	Go	Incorrect	n/a
124.1327	0.5171	0	Stop	succesful_stop	300
128.6196	0.5171	693	Go	correct	n/a
136.1423	0.5171	668	Go	correct	n/a
140.6292	0.5171	515	Stop	Failed_stop	350
145.6332	0.5171	636	Go	correct	n/a
148.1519	0.5171	549	Go	correct	n/a
153.1392	0.5171	611	Go	correct	n/a
156.1583	0.5171	0	Stop	succesful_stop	400
165.6492	0.5171	535	Go	correct	n/a
172.1711	0.5171	784	Go	correct	n/a
177.6588	0.5171	578	Stop	Failed_stop	450
181.662	0.5171	991	Go	correct	n/a
185.1648	0.5171	584	Go	correct	n/a
188.6676	0.5171	507	Go	correct	n/a
192.1871	0.5171	522	Stop	Failed_stop	500
197.6749	0.517	613	Stop	Failed_stop	550
200.1935	0.5171	555	Stop	Failed_stop	550
204.6805	0.517	0	Stop	succesful_stop	500
213.6877	0.517	0	Stop	succesful_stop	500
216.6901	0.5171	1000	Go	correct	n/a
220.2096	0.517	888	Go	correct	n/a
225.6973	0.5171	643	Stop	Failed_stop	550
228.216	0.517	901	Go	correct	n/a
232.7029	0.5171	618	Go	correct	n/a
237.7069	0.5171	993	Go	correct	n/a
241.2097	0.5171	0	Stop	succesful_stop	550
244.2288	0.5171	923	Go	correct	n/a
249.7165	0.5171	1017	Go	correct	n/a
253.7197	0.5171	0	Stop	succesful_stop	600
256.2384	0.5171	882	Go	correct	n/a
261.2257	0.5171	0	Stop	succesful_stop	650
264.7285	0.5171	851	Go	correct	n/a
269.7325	0.5171	919	Go	correct	n/a
277.7389	0.5171	900	Stop	Failed_stop	700
281.2417	0.5171	1123	Go	correct	n/a
285.7453	0.5171	0	Stop	succesful_stop	750
289.7485	0.5171	907	Go	correct	n/a
292.7509	0.5171	1180	Go	correct	n/a
297.2545	0.5171	964	Go	correct	n/a
304.7605	0.5171	841	Stop	Failed_stop	800
308.28	0.5171	1011	Go	correct	n/a
313.2673	0.5171	1066	Go	correct	n/a
317.771	0.517	877	Go	correct	n/a
320.2896	0.5171	931	Go	correct	n/a
325.7774	0.517	900	Go	correct	n/a
329.7806	0.517	919	Go	correct	n/a
333.2834	0.517	858	Stop	Failed_stop	850
336.3024	0.5171	0	Stop	succesful_stop	900
341.2898	0.5171	855	Go	correct	n/a
345.7934	0.5171	833	Go	correct	n/a
348.7958	0.5171	921	Stop	Failed_stop	950
353.2994	0.5171	755	Stop	Failed_stop	1000
356.3185	0.517	1390	Go	correct	n/a
365.8094	0.5171	802	Go	correct	n/a
368.3281	0.5171	1084	Go	correct	n/a
373.3154	0.5171	879	Go	correct	n/a
377.819	0.5171	662	Go	correct	n/a
381.3218	0.5171	1051	Go	correct	n/a
385.8254	0.5171	1008	Stop	Failed_stop	1000
388.3441	0.5171	964	Go	correct	n/a
396.3505	0.5171	846	Go	correct	n/a
400.3537	0.5171	873	Stop	Failed_stop	950
404.8406	0.5171	1005	Go	correct	n/a
409.3442	0.5171	885	Go	correct	n/a
412.3633	0.5171	847	Go	correct	n/a
416.8502	0.5171	963	Go	correct	n/a
420.3697	0.5171	1092	Go	correct	n/a
424.8566	0.5171	1063	Stop	Failed_stop	900
429.3602	0.5171	964	Go	correct	n/a
432.863	0.5171	615	Stop	Failed_stop	850
436.8662	0.5171	547	Go	Incorrect	n/a
440.8694	0.5171	357	Stop	Failed_stop	800
445.8735	0.517	654	Go	correct	n/a
449.3763	0.517	515	Stop	Failed_stop	750
452.3953	0.5171	536	Go	correct	n/a
457.3827	0.517	527	Stop	Failed_stop	700
460.4017	0.5171	922	Go	correct	n/a
465.3891	0.517	947	Go	correct	n/a
469.3923	0.5171	784	Go	correct	n/a
473.3955	0.5171	862	Go	correct	n/a
476.8983	0.5171	0	Stop	succesful_stop	650
481.9023	0.5171	647	Go	correct	n/a
484.421	0.517	911	Go	correct	n/a
488.9079	0.5171	810	Go	correct	n/a
493.4115	0.5171	860	Go	correct	n/a
497.9151	0.5171	0	Stop	succesful_stop	600
501.4179	0.5171	0	Stop	succesful_stop	550
504.9207	0.5171	0	Stop	succesful_stop	500
509.4243	0.5171	465	Go	correct	n/a
512.4434	0.5171	734	Go	Incorrect	n/a
517.9311	0.5171	621	Go	correct	n/a
525.4371	0.5171	0	Stop	succesful_stop	450
528.4562	0.5171	0	Stop	succesful_stop	400
533.4435	0.5171	800	Go	correct	n/a
536.9463	0.5171	0	Stop	succesful_stop	350
540.9495	0.5171	0	Stop	succesful_stop	350
544.469	0.5171	0	Stop	succesful_stop	400
549.4563	0.5171	706	Go	correct	n/a
553.9599	0.5171	586	Go	correct	n/a
561.4659	0.5171	766	Go	correct	n/a
564.485	0.5171	618	Go	correct	n/a
568.4882	0.5171	899	Go	correct	n/a
572.9751	0.5171	643	Go	correct	n/a
580.9816	0.517	867	Go	correct	n/a
584.501	0.5171	0	Stop	succesful_stop	450
588.5042	0.5171	689	Stop	Failed_stop	500
593.4916	0.517	698	Go	correct	n/a
597.4948	0.517	629	Go	correct	n/a
600.5138	0.5171	672	Go	correct	n/a
606.0016	0.5171	569	Stop	Failed_stop	550
609.5044	0.5171	763	Go	correct	n/a
612.5235	0.517	0	Stop	succesful_stop	600
617.5108	0.5171	773	Go	correct	n/a
625.5172	0.5171	797	Go	correct	n/a
628.5363	0.5171	793	Go	correct	n/a
633.5236	0.5171	725	Go	Incorrect	n/a
638.0272	0.5171	640	Go	correct	n/a
641.53	0.5171	680	Stop	Failed_stop	650
644.5491	0.5171	966	Go	correct	n/a
649.036	0.5171	883	Go	correct	n/a
652.5555	0.5171	538	Go	correct	n/a
657.5428	0.5171	675	Go	correct	n/a
