onset	duration	Pair	Choice	Response	RT	Feedback_Onset	Feedback_duration	Balance	RPE	Q_chosen	Q_notchosen	npair	Beta_Q	alpha_gain	alpha_loss
0.5337	0.8174	FE	E	Correct	0.809	2.1017	0.5171	1	0.3931	0.6069	0.549	56	4.505	0.017	0
4.5537	0.9674	DC	C	Correct	0.962	6.2717	0.5171	1	0.3607	0.6393	0.5567	34	4.505	0.017	0
8.5736	0.8006	FE	E	Correct	0.787	10.1249	0.517	-1	-0.6136	0.6136	0.549	56	4.505	0.017	0
12.5935	0.9842	BA	A	Correct	0.974	14.3283	0.5171	1	0.2885	0.7115	0.5332	12	4.505	0.017	0
17.6143	1.2009	CD	C	Correct	1.194	19.5659	0.517	1	0.3545	0.6455	0.5567	34	4.505	0.017	0
21.1338	1.0175	AB	B	Incorrect	1.013	22.9019	0.5171	-1	-0.5332	0.5332	0.7165	12	4.505	0.017	0
25.6541	0.9341	FE	F	Incorrect	0.925	27.3388	0.5171	1	0.451	0.549	0.6136	56	4.505	0.017	0
32.6765	0.6339	DC	C	Correct	0.631	34.061	0.517	-1	-0.6515	0.6515	0.5567	34	4.505	0.017	0
37.1968	0.5672	AB	B	Incorrect	0.551	38.5146	0.5171	-1	-0.5332	0.5332	0.7165	12	4.505	0.017	0
40.7164	0.8173	AB	A	Correct	0.799	42.2843	0.5171	1	0.2835	0.7165	0.5332	12	4.505	0.017	0
44.2693	0.6171	EF	F	Incorrect	0.609	45.637	0.5171	-1	-0.5567	0.5567	0.6136	56	4.505	0.017	0
48.7896	0.5171	FE	F	Incorrect	0.512	50.0573	0.5171	1	0.4433	0.5567	0.6136	56	4.505	0.017	0
53.3099	1.1843	FE	F	Incorrect	1.175	55.2448	0.5171	-1	-0.5642	0.5642	0.6136	56	4.505	0.017	0
56.3457	1.1843	DC	C	Correct	1.18	58.2806	0.5171	1	0.3485	0.6515	0.5567	34	4.505	0.017	0
60.8661	1.0008	FE	E	Correct	0.984	62.6175	0.5171	-1	-0.6136	0.6136	0.5642	56	4.505	0.017	0
64.886	1.4345	BA	B	Incorrect	1.428	66.6207	0.5171	-1	-0.5332	0.5332	0.7213	12	4.505	0.017	0
68.4222	0.6839	CD	D	Incorrect	0.671	69.4063	0.5171	-1	-0.5567	0.5567	0.6574	34	4.505	0.017	0
76.4621	1.4511	AB	A	Correct	1.438	78.2135	0.5171	1	0.2787	0.7213	0.5332	12	4.505	0.017	0
81.4828	0.784	CD	D	Incorrect	0.771	82.567	0.5171	1	0.4433	0.5567	0.6574	34	4.505	0.017	0
85.5027	0.834	CD	C	Correct	0.816	86.637	0.5171	1	0.3426	0.6574	0.5642	34	4.505	0.017	0
94.043	0.8507	EF	F	Incorrect	0.845	95.1939	0.5171	1	0.4358	0.5642	0.6136	56	4.505	0.017	0
98.0629	0.9008	BA	B	Incorrect	0.897	99.2639	0.5171	-1	-0.5332	0.5332	0.726	12	4.505	0.017	0
106.0861	0.7173	EF	F	Incorrect	0.703	107.1036	0.5171	-1	-0.5717	0.5717	0.6136	56	4.505	0.017	0
110.106	0.734	EF	F	Incorrect	0.73	111.1402	0.5171	1	0.4283	0.5717	0.6136	56	4.505	0.017	0
112.6414	1.1176	FE	F	Incorrect	1.101	114.0593	0.517	1	0.421	0.579	0.6136	56	4.505	0.017	0
118.1626	0.8173	AB	A	Correct	0.811	119.2802	0.517	1	0.274	0.726	0.5332	12	4.505	0.017	0
121.1817	0.834	DC	C	Correct	0.816	122.316	0.517	-1	-0.6633	0.6633	0.5642	34	4.505	0.017	0
124.7179	0.9508	CD	C	Correct	0.947	125.9689	0.5171	1	0.3367	0.6633	0.5642	34	4.505	0.017	0
129.7387	0.7339	FE	E	Correct	0.725	130.7728	0.5171	-1	-0.6136	0.6136	0.5861	56	4.505	0.017	0
134.259	0.884	FE	F	Incorrect	0.869	135.4433	0.5171	1	0.4139	0.5861	0.6136	56	4.505	0.017	0
137.7785	1.0675	BA	A	Correct	1.061	139.1463	0.5171	1	0.2693	0.7307	0.5332	12	4.505	0.017	0
142.2989	1.1842	CD	C	Correct	1.169	143.7834	0.5171	-1	-0.669	0.669	0.5642	34	4.505	0.017	0
144.8342	1.3011	FE	F	Incorrect	1.297	146.4355	0.5171	-1	-0.5932	0.5932	0.6136	56	4.505	0.017	0
149.855	0.4837	DC	D	Incorrect	0.473	150.639	0.517	-1	-0.5642	0.5642	0.669	34	4.505	0.017	0
153.3745	0.7339	DC	C	Correct	0.723	154.4087	0.5171	-1	-0.669	0.669	0.5642	34	4.505	0.017	0
156.9107	1.0842	EF	F	Incorrect	1.078	158.2952	0.5171	1	0.4068	0.5932	0.6136	56	4.505	0.017	0
161.9315	0.9174	BA	A	Correct	0.911	163.1491	0.5171	1	0.2647	0.7353	0.5332	12	4.505	0.017	0
169.9546	1.4846	AB	B	Incorrect	1.482	171.7394	0.5171	-1	-0.5332	0.5332	0.7398	12	4.505	0.017	0
173.9746	1.1676	BA	A	Correct	1.159	175.4424	0.5171	1	0.2602	0.7398	0.5332	12	4.505	0.017	0
177.4941	1.2343	DC	C	Correct	1.23	179.0287	0.5171	1	0.331	0.669	0.5642	34	4.505	0.017	0
181.514	0.8841	CD	D	Incorrect	0.874	182.6983	0.5171	-1	-0.5642	0.5642	0.6747	34	4.505	0.017	0
186.0344	1.1676	BA	A	Correct	1.165	187.5022	0.5171	1	0.2558	0.7442	0.5332	12	4.505	0.017	0
190.0877	1.1009	EF	E	Correct	1.095	191.4888	0.5171	-1	-0.6136	0.6136	0.6001	56	4.505	0.017	0
193.6072	1.0342	EF	F	Incorrect	1.03	194.9416	0.5171	1	0.3999	0.6001	0.6136	56	4.505	0.017	0
198.1275	2.2852	BA	A	Correct	2.281	200.713	0.4336	1	0.2514	0.7486	0.5332	12	4.505	0.017	0
202.6479	0.934	EF	E	Correct	0.925	203.8822	0.5171	1	0.3864	0.6136	0.6069	56	4.505	0.017	0
205.667	0.9174	AB	A	Correct	0.91	206.8846	0.5171	1	0.2471	0.7529	0.5332	12	4.505	0.017	0
213.2064	0.9341	FE	F	Incorrect	0.925	214.4408	0.5171	1	0.3931	0.6069	0.6202	56	4.505	0.017	0
218.2272	0.8006	CD	D	Incorrect	0.782	219.3114	0.5171	-1	-0.5642	0.5642	0.6747	34	4.505	0.017	0
221.2797	0.934	CD	C	Correct	0.921	222.514	0.5171	1	0.3253	0.6747	0.5642	34	4.505	0.017	0
230.3036	0.8507	EF	E	Correct	0.84	231.4546	0.5171	-1	-0.6202	0.6202	0.6136	56	4.505	0.017	0
233.8232	1.1843	EF	E	Correct	1.176	235.3077	0.5171	-1	-0.6202	0.6202	0.6136	56	4.505	0.017	0
238.3435	0.8007	CD	C	Correct	0.793	239.4444	0.5171	-1	-0.6802	0.6802	0.5642	34	4.505	0.017	0
241.3793	1.6513	DC	C	Correct	1.635	243.3309	0.5171	-1	-0.6802	0.6802	0.5642	34	4.505	0.017	0
245.4159	0.7339	DC	D	Incorrect	0.728	246.4501	0.5171	1	0.4358	0.5642	0.6802	34	4.505	0.017	0
249.9363	0.9841	BA	A	Correct	0.973	251.2206	0.5171	1	0.2429	0.7571	0.5332	12	4.505	0.017	0
257.9594	0.6839	CD	C	Correct	0.671	258.9436	0.5171	1	0.3198	0.6802	0.5716	34	4.505	0.017	0
261.4956	0.8841	DC	C	Correct	0.87	262.6799	0.5171	1	0.3144	0.6856	0.5716	34	4.505	0.017	0
266.016	1.1843	EF	F	Incorrect	1.172	267.5005	0.5171	-1	-0.6136	0.6136	0.6202	56	4.505	0.017	0
271.0367	0.7506	DC	C	Correct	0.744	272.0876	0.5171	1	0.309	0.691	0.5716	34	4.505	0.017	0
278.5762	0.9674	FE	E	Correct	0.96	279.8439	0.5171	1	0.3798	0.6202	0.6136	56	4.505	0.017	0
282.5961	0.7006	FE	E	Correct	0.69	283.5969	0.5171	-1	-0.6267	0.6267	0.6136	56	4.505	0.017	0
286.616	0.9508	DC	C	Correct	0.941	287.8671	0.517	1	0.3037	0.6963	0.5716	34	4.505	0.017	0
289.6518	1.0342	AB	A	Correct	1.026	290.9863	0.517	-1	-0.7612	0.7612	0.5332	12	4.505	0.017	0
293.6884	0.7173	AB	A	Correct	0.708	294.7059	0.5171	-1	-0.7612	0.7612	0.5332	12	4.505	0.017	0
298.2088	1.0675	AB	A	Correct	1.049	299.5766	0.5171	1	0.2388	0.7612	0.5332	12	4.505	0.017	0
301.7617	1.0508	EF	F	Incorrect	1.034	303.1128	0.5171	1	0.3864	0.6136	0.6267	56	4.505	0.017	0
306.7824	0.7173	FE	E	Correct	0.712	307.7999	0.5171	-1	-0.6267	0.6267	0.6202	56	4.505	0.017	0
311.3028	1.0675	CD	C	Correct	1.06	312.6705	0.5171	1	0.2986	0.7014	0.5716	34	4.505	0.017	0
318.8255	0.7006	EF	E	Correct	0.689	319.8263	0.5171	1	0.3733	0.6267	0.6202	56	4.505	0.017	0
321.8613	0.5171	CD	D	Incorrect	0.506	322.6787	0.517	-1	-0.5716	0.5716	0.7065	34	4.505	0.017	0
326.3817	0.9341	CD	C	Correct	0.932	327.616	0.5171	-1	-0.7065	0.7065	0.5716	34	4.505	0.017	0
330.8853	0.834	EF	F	Incorrect	0.817	332.0196	0.5171	-1	-0.6202	0.6202	0.633	56	4.505	0.017	0
334.9053	1.0008	DC	C	Correct	0.997	336.2063	0.5171	1	0.2935	0.7065	0.5716	34	4.505	0.017	0
338.4248	1.201	AB	A	Correct	1.187	339.926	0.5171	1	0.2347	0.7653	0.5332	12	4.505	0.017	0
343.4455	0.834	EF	F	Incorrect	0.816	344.5798	0.5171	1	0.3798	0.6202	0.633	56	4.505	0.017	0
346.965	0.8174	CD	C	Correct	0.815	348.0826	0.5171	-1	-0.7115	0.7115	0.5716	34	4.505	0.017	0
350.0008	0.9175	AB	A	Correct	0.9	351.2185	0.5171	1	0.2307	0.7693	0.5332	12	4.505	0.017	0
354.0375	1.4345	AB	A	Correct	1.417	355.7722	0.5171	1	0.2268	0.7732	0.5332	12	4.505	0.017	0
358.5578	1.0175	BA	A	Correct	1.007	359.8755	0.5171	1	0.2229	0.7771	0.5332	12	4.505	0.017	0
366.0972	0.6839	AB	A	Correct	0.666	367.0814	0.5171	-1	-0.7809	0.7809	0.5332	12	4.505	0.017	0
371.118	1.0508	CD	D	Incorrect	1.047	372.4691	0.5171	-1	-0.5716	0.5716	0.7115	34	4.505	0.017	0
374.6375	0.834	FE	F	Incorrect	0.823	375.7718	0.5171	-1	-0.6267	0.6267	0.633	56	4.505	0.017	0
379.6583	0.7172	DC	C	Correct	0.699	380.6591	0.5171	1	0.2885	0.7115	0.5716	34	4.505	0.017	0
383.6782	0.7506	DC	D	Incorrect	0.741	384.729	0.5171	-1	-0.5716	0.5716	0.7164	34	4.505	0.017	0
386.2136	0.9007	CD	C	Correct	0.897	387.4146	0.517	-1	-0.7164	0.7164	0.5716	34	4.505	0.017	0
394.7372	0.6672	AB	A	Correct	0.664	395.7046	0.5171	1	0.2191	0.7809	0.5332	12	4.505	0.017	0
398.7571	0.834	EF	F	Incorrect	0.823	399.8914	0.517	-1	-0.6267	0.6267	0.633	56	4.505	0.017	0
403.7778	1.0843	BA	A	Correct	1.067	405.1623	0.5171	1	0.2154	0.7846	0.5332	12	4.505	0.017	0
407.2974	0.6672	EF	E	Correct	0.665	408.2648	0.5171	1	0.367	0.633	0.6267	56	4.505	0.017	0
410.8169	0.9674	EF	E	Correct	0.95	412.0846	0.5171	-1	-0.6393	0.6393	0.6267	56	4.505	0.017	0
414.8368	0.7006	BA	A	Correct	0.689	415.8376	0.5171	1	0.2117	0.7883	0.5332	12	4.505	0.017	0
419.8576	1.3177	BA	A	Correct	1.31	421.4756	0.517	1	0.2081	0.7919	0.5332	12	4.505	0.017	0
427.8807	1.0676	DC	C	Correct	1.059	429.2485	0.5171	1	0.2836	0.7164	0.5716	34	4.505	0.017	0
430.8999	3.5028	EF	n/a	omission	0	434.703	0.517	0	0	0	0	0	4.505	0.017	0
438.406	0.6005	AB	A	Correct	0.596	439.3067	0.5171	1	0.2045	0.7955	0.5332	12	4.505	0.017	0
441.9422	0.7172	AB	A	Correct	0.714	442.9597	0.517	-1	-0.7989	0.7989	0.5332	12	4.505	0.017	0
445.9788	1.1509	DC	C	Correct	1.137	447.43	0.517	1	0.2787	0.7213	0.5716	34	4.505	0.017	0
450.9995	0.5672	FE	E	Correct	0.561	451.8669	0.5171	1	0.3607	0.6393	0.6267	56	4.505	0.017	0
454.519	0.8507	CD	C	Correct	0.844	455.67	0.5171	1	0.274	0.726	0.5716	34	4.505	0.017	0
463.0426	0.6839	AB	A	Correct	0.668	464.0268	0.5171	1	0.2011	0.7989	0.5332	12	4.505	0.017	0
466.0784	0.5505	AB	A	Correct	0.532	466.9291	0.5171	1	0.1976	0.8024	0.5332	12	4.505	0.017	0
470.1317	0.8841	AB	A	Correct	0.867	471.316	0.5171	1	0.1943	0.8057	0.5332	12	4.505	0.017	0
475.6529	0.6672	FE	E	Correct	0.659	476.6203	0.5171	-1	-0.6454	0.6454	0.6267	56	4.505	0.017	0
479.6728	0.7339	BA	B	Incorrect	0.728	480.707	0.5171	-1	-0.5332	0.5332	0.809	12	4.505	0.017	0
487.1956	1.0008	AB	A	Correct	0.985	488.4966	0.5171	1	0.191	0.809	0.5332	12	4.505	0.017	0
491.2155	0.8841	FE	E	Correct	0.868	492.3998	0.5171	1	0.3546	0.6454	0.6267	56	4.505	0.017	0
495.7358	1.1843	DC	D	Incorrect	1.167	497.2204	0.5171	1	0.4284	0.5716	0.7307	34	4.505	0.017	0
499.7558	1.301	FE	F	Incorrect	1.287	501.3571	0.5171	-1	-0.6267	0.6267	0.6515	56	4.505	0.017	0
502.2912	1.5512	BA	B	Incorrect	1.548	504.1427	0.5171	-1	-0.5332	0.5332	0.8123	12	4.505	0.017	0
506.8115	1.1176	FE	E	Correct	1.115	508.2293	0.5171	1	0.3485	0.6515	0.6267	56	4.505	0.017	0
510.3477	0.6339	DC	D	Incorrect	0.632	511.2818	0.5171	-1	-0.5789	0.5789	0.7307	34	4.505	0.017	0
514.8514	0.7005	EF	E	Correct	0.687	515.8522	0.5171	1	0.3426	0.6574	0.6267	56	4.505	0.017	0
519.3717	0.8007	BA	A	Correct	0.789	520.4726	0.5171	1	0.1877	0.8123	0.5332	12	4.505	0.017	0
522.4075	0.9675	FE	E	Correct	0.957	523.6752	0.5171	-1	-0.6633	0.6633	0.6267	56	4.505	0.017	0
527.9287	1.5846	FE	F	Incorrect	1.579	529.8135	0.5171	-1	-0.6267	0.6267	0.6633	56	4.505	0.017	0
530.4641	1.1008	FE	F	Incorrect	1.097	531.8652	0.5171	-1	-0.6267	0.6267	0.6633	56	4.505	0.017	0
534.9844	0.6839	FE	E	Correct	0.677	535.9685	0.5171	1	0.3367	0.6633	0.6267	56	4.505	0.017	0
540.0051	1.9016	AB	A	Correct	1.893	542.2069	0.3169	-1	-0.8155	0.8155	0.5332	12	4.505	0.017	0
542.5405	0.6672	CD	D	Incorrect	0.655	543.508	0.5171	-1	-0.5789	0.5789	0.7307	34	4.505	0.017	0
547.5613	1.3511	EF	E	Correct	1.336	549.2126	0.5171	1	0.331	0.669	0.6267	56	4.505	0.017	0
551.0808	0.7006	DC	C	Correct	0.684	552.0816	0.5171	1	0.2693	0.7307	0.5789	34	4.505	0.017	0
556.1015	1.2677	EF	E	Correct	1.261	557.6695	0.5171	-1	-0.6746	0.6746	0.6267	56	4.505	0.017	0
559.1207	1.0508	DC	C	Correct	1.035	560.4717	0.5171	-1	-0.7353	0.7353	0.5789	34	4.505	0.017	0
564.1414	0.8006	DC	C	Correct	0.787	565.2423	0.5171	1	0.2647	0.7353	0.5789	34	4.505	0.017	0
568.1613	1.6347	EF	F	Incorrect	1.626	570.0962	0.5171	-1	-0.6267	0.6267	0.6746	56	4.505	0.017	0
571.1804	1.151	EF	E	Correct	1.147	572.6316	0.5171	1	0.3254	0.6746	0.6267	56	4.505	0.017	0
575.2004	1.1175	CD	D	Incorrect	1.107	576.6182	0.5171	1	0.4211	0.5789	0.7398	34	4.505	0.017	0
580.2211	0.7006	EF	E	Correct	0.692	581.2219	0.5171	1	0.3198	0.6802	0.6267	56	4.505	0.017	0
582.7565	1.2677	CD	C	Correct	1.254	584.3244	0.5171	1	0.2602	0.7398	0.5861	34	4.505	0.017	0
588.2777	1.4845	DC	C	Correct	1.482	590.0624	0.5171	1	0.2558	0.7442	0.5861	34	4.505	0.017	0
591.2968	0.784	FE	F	Incorrect	0.775	592.381	0.5171	-1	-0.6267	0.6267	0.6856	56	4.505	0.017	0
596.3175	0.9008	CD	C	Correct	0.888	597.5185	0.5171	-1	-0.7486	0.7486	0.5861	34	4.505	0.017	0
600.3375	1.301	BA	A	Correct	1.291	601.9388	0.517	-1	-0.8155	0.8155	0.5332	12	4.505	0.017	0
602.8728	0.8674	DC	C	Correct	0.854	604.0405	0.517	1	0.2514	0.7486	0.5861	34	4.505	0.017	0
606.9095	0.7672	BA	A	Correct	0.75	607.977	0.5171	1	0.1845	0.8155	0.5332	12	4.505	0.017	0
611.9302	0.7172	BA	A	Correct	0.709	612.9477	0.5171	-1	-0.8186	0.8186	0.5332	12	4.505	0.017	0
614.966	1.3344	FE	E	Correct	1.326	616.6007	0.517	1	0.3144	0.6856	0.6267	56	4.505	0.017	0
619.0026	2.0183	CD	C	Correct	2.007	621.3212	0.517	-1	-0.7529	0.7529	0.5861	34	4.505	0.017	0
623.0392	0.6339	AB	A	Correct	0.622	623.9733	0.5171	1	0.1814	0.8186	0.5332	12	4.505	0.017	0
627.0758	0.834	EF	F	Incorrect	0.819	628.2101	0.5171	1	0.3733	0.6267	0.691	56	4.505	0.017	0
635.5994	1.3511	AB	A	Correct	1.347	637.2508	0.517	1	0.1783	0.8217	0.5332	12	4.505	0.017	0
640.1198	0.8506	EF	F	Incorrect	0.84	641.2707	0.5171	-1	-0.633	0.633	0.691	56	4.505	0.017	0
648.6433	0.6005	AB	A	Correct	0.59	649.5441	0.5171	1	0.1752	0.8248	0.5332	12	4.505	0.017	0
651.6625	0.6839	CD	D	Incorrect	0.667	652.6466	0.5171	-1	-0.5861	0.5861	0.7529	34	4.505	0.017	0
660.6865	0.5504	DC	D	Incorrect	0.535	661.5371	0.5171	1	0.4139	0.5861	0.7529	34	4.505	0.017	0
663.7056	0.9341	FE	E	Correct	0.929	664.9399	0.5171	1	0.309	0.691	0.633	56	4.505	0.017	0
668.7263	0.6839	DC	C	Correct	0.677	669.7105	0.517	1	0.2471	0.7529	0.5932	34	4.505	0.017	0
672.2458	1.0175	DC	C	Correct	1.008	673.5636	0.5171	1	0.2429	0.7571	0.5932	34	4.505	0.017	0
