onset	duration	Pair	Response	RT	Cond	Q_choice	Q_notchosen	eQdiff	Rv_diff	Beta_Q	alpha_gain	alpha_loss
1.0339	1.4511	Ef	inCorrect	1.435	wl.l	0.633	0.6963	-0.0633	20	4.505	0.017	0
4.0699	0.8506	eC	Correct	0.844	ww	0.7612	0.6963	0.0649	10	4.505	0.017	0
8.5899	1.3678	dA	Correct	1.356	wl.u	0.8278	0.5932	0.2346	50	4.505	0.017	0
12.1259	0.9174	Db	Correct	0.915	ll	0.5932	0.5332	0.06	10	4.505	0.017	0
16.6459	0.6172	Fd	Correct	0.612	ll	0.633	0.5932	0.0398	10	4.505	0.017	0
21.1669	0.5504	fA	Correct	0.536	wl.u	0.8278	0.633	0.1948	40	4.505	0.017	0
24.6859	0.6172	dF	Correct	0.609	ll	0.633	0.5932	0.0398	10	4.505	0.017	0
28.7059	0.6339	bF	Correct	0.628	ll	0.633	0.5332	0.0998	20	4.505	0.017	0
33.2269	1.2176	Fb	Correct	1.2	ll	0.633	0.5332	0.0998	20	4.505	0.017	0
41.2499	1.0175	Cd	Correct	1.002	wl.l	0.7612	0.5932	0.168	40	4.505	0.017	0
44.2859	1.8015	bF	inCorrect	1.793	ll	0.5332	0.633	-0.0998	20	4.505	0.017	0
49.3059	1.201	Ce	inCorrect	1.198	ww	0.6963	0.7612	-0.0649	10	4.505	0.017	0
52.3419	1.8849	Ab	Correct	1.883	wl.l	0.8278	0.5332	0.2946	60	4.505	0.017	0
56.8459	1.2511	bD	inCorrect	1.235	ll	0.5332	0.5932	-0.06	10	4.505	0.017	0
60.8659	0.884	Eb	Correct	0.876	wl.u	0.6963	0.5332	0.1631	40	4.505	0.017	0
65.3859	0.5838	Ed	Correct	0.58	wl.u	0.6963	0.5932	0.1031	30	4.505	0.017	0
68.4219	0.9007	Fd	Correct	0.891	ll	0.633	0.5932	0.0398	10	4.505	0.017	0
72.4579	1.0342	cA	Correct	1.028	ww	0.8278	0.7612	0.0666	10	4.505	0.017	0
76.4949	1.0509	Ae	Correct	1.047	ww	0.8278	0.6963	0.1315	20	4.505	0.017	0
80.5319	0.6506	eA	Correct	0.643	ww	0.8278	0.6963	0.1315	20	4.505	0.017	0
88.5719	0.7506	eC	inCorrect	0.743	ww	0.6963	0.7612	-0.0649	10	4.505	0.017	0
93.0919	0.9842	bE	Correct	0.973	wl.u	0.6963	0.5332	0.1631	40	4.505	0.017	0
97.6119	0.6505	Ef	inCorrect	0.644	wl.l	0.633	0.6963	-0.0633	20	4.505	0.017	0
101.1319	1.5012	Ef	inCorrect	1.496	wl.l	0.633	0.6963	-0.0633	20	4.505	0.017	0
105.6519	1.151	eA	inCorrect	1.144	ww	0.6963	0.8278	-0.1315	20	4.505	0.017	0
113.1749	2.6188	eC	inCorrect	2.611	ww	0.6963	0.7612	-0.0649	10	4.505	0.017	0
116.7109	1.1843	Eb	Correct	1.177	wl.u	0.6963	0.5332	0.1631	40	4.505	0.017	0
121.2309	1.2843	bD	inCorrect	1.266	ll	0.5332	0.5932	-0.06	10	4.505	0.017	0
124.7839	1.1176	Ad	Correct	1.11	wl.u	0.8278	0.5932	0.2346	50	4.505	0.017	0
128.8209	1.0341	fE	Correct	1.029	wl.l	0.6963	0.633	0.0633	20	4.505	0.017	0
132.8579	0.7839	Ae	Correct	0.774	ww	0.8278	0.6963	0.1315	20	4.505	0.017	0
136.8939	0.7506	Ce	inCorrect	0.739	ww	0.6963	0.7612	-0.0649	10	4.505	0.017	0
140.9309	1.1009	dC	inCorrect	1.093	wl.l	0.5932	0.7612	-0.168	40	4.505	0.017	0
144.9669	0.7506	bA	Correct	0.748	wl.l	0.8278	0.5332	0.2946	60	4.505	0.017	0
149.9709	1.3844	Ae	Correct	1.373	ww	0.8278	0.6963	0.1315	20	4.505	0.017	0
153.4909	0.784	Cb	Correct	0.77	wl.u	0.7612	0.5332	0.228	50	4.505	0.017	0
157.0269	0.6338	Ed	inCorrect	0.623	wl.u	0.5932	0.6963	-0.1031	30	4.505	0.017	0
161.5469	0.7506	dE	Correct	0.743	wl.u	0.6963	0.5932	0.1031	30	4.505	0.017	0
170.0709	1.6013	Ac	inCorrect	1.588	ww	0.7612	0.8278	-0.0666	10	4.505	0.017	0
173.5909	1.0342	cA	Correct	1.017	ww	0.8278	0.7612	0.0666	10	4.505	0.017	0
177.6109	0.6839	cA	Correct	0.666	ww	0.8278	0.7612	0.0666	10	4.505	0.017	0
181.6299	0.8507	Ac	Correct	0.838	ww	0.8278	0.7612	0.0666	10	4.505	0.017	0
186.1509	0.784	eC	inCorrect	0.776	ww	0.6963	0.7612	-0.0649	10	4.505	0.017	0
190.1709	0.6005	Cd	Correct	0.586	wl.l	0.7612	0.5932	0.168	40	4.505	0.017	0
193.6899	0.8674	Ae	Correct	0.863	ww	0.8278	0.6963	0.1315	20	4.505	0.017	0
197.2259	0.6505	dC	Correct	0.632	wl.l	0.7612	0.5932	0.168	40	4.505	0.017	0
202.2469	2.769	Fd	inCorrect	2.751	ll	0.5932	0.633	-0.0398	10	4.505	0.017	0
205.7669	1.0008	Ab	Correct	0.998	wl.l	0.8278	0.5332	0.2946	60	4.505	0.017	0
209.3029	0.9507	Fb	Correct	0.945	ll	0.633	0.5332	0.0998	20	4.505	0.017	0
213.3399	0.834	dA	Correct	0.82	wl.u	0.8278	0.5932	0.2346	50	4.505	0.017	0
221.8629	0.8006	Ac	Correct	0.797	ww	0.8278	0.7612	0.0666	10	4.505	0.017	0
225.8829	0.7673	bF	Correct	0.749	ll	0.633	0.5332	0.0998	20	4.505	0.017	0
229.4359	0.7673	bF	Correct	0.762	ll	0.633	0.5332	0.0998	20	4.505	0.017	0
233.9559	1.1009	Af	Correct	1.086	wl.u	0.8278	0.633	0.1948	40	4.505	0.017	0
238.4769	0.7839	dA	Correct	0.779	wl.u	0.8278	0.5932	0.2346	50	4.505	0.017	0
241.9959	0.8173	dA	Correct	0.811	wl.u	0.8278	0.5932	0.2346	50	4.505	0.017	0
246.0159	0.7506	Af	inCorrect	0.742	wl.u	0.633	0.8278	-0.1948	40	4.505	0.017	0
249.5519	0.7506	eA	Correct	0.739	ww	0.8278	0.6963	0.1315	20	4.505	0.017	0
254.0729	0.8673	Eb	Correct	0.861	wl.u	0.6963	0.5332	0.1631	40	4.505	0.017	0
258.5929	0.6672	Ce	inCorrect	0.656	ww	0.6963	0.7612	-0.0649	10	4.505	0.017	0
262.6129	0.9341	Ae	Correct	0.93	ww	0.8278	0.6963	0.1315	20	4.505	0.017	0
265.6489	1.3344	bA	Correct	1.321	wl.l	0.8278	0.5332	0.2946	60	4.505	0.017	0
270.6689	1.2343	fE	Correct	1.222	wl.l	0.6963	0.633	0.0633	20	4.505	0.017	0
274.1889	0.5171	fE	inCorrect	0.499	wl.l	0.633	0.6963	-0.0633	20	4.505	0.017	0
278.7089	1.3345	fC	inCorrect	1.327	wl.u	0.633	0.7612	-0.1282	30	4.505	0.017	0
282.7289	0.7506	Cb	Correct	0.735	wl.u	0.7612	0.5332	0.228	50	4.505	0.017	0
286.2489	0.8507	Ac	Correct	0.837	ww	0.8278	0.7612	0.0666	10	4.505	0.017	0
289.7849	0.9341	fC	inCorrect	0.932	wl.u	0.633	0.7612	-0.1282	30	4.505	0.017	0
293.8219	1.4679	fE	inCorrect	1.46	wl.l	0.633	0.6963	-0.0633	20	4.505	0.017	0
298.3419	0.9175	eA	Correct	0.903	ww	0.8278	0.6963	0.1315	20	4.505	0.017	0
302.3619	0.7172	Ac	Correct	0.711	ww	0.8278	0.7612	0.0666	10	4.505	0.017	0
306.8819	0.9841	Cd	Correct	0.978	wl.l	0.7612	0.5932	0.168	40	4.505	0.017	0
310.9019	0.9842	bC	inCorrect	0.972	wl.u	0.5332	0.7612	-0.228	50	4.505	0.017	0
314.9219	1.5012	dC	inCorrect	1.496	wl.l	0.5932	0.7612	-0.168	40	4.505	0.017	0
321.9609	0.7506	Ad	Correct	0.733	wl.u	0.8278	0.5932	0.2346	50	4.505	0.017	0
325.9979	1.5847	dE	inCorrect	1.567	wl.u	0.5932	0.6963	-0.1031	30	4.505	0.017	0
330.0339	0.8007	Fb	Correct	0.783	ll	0.633	0.5332	0.0998	20	4.505	0.017	0
335.0549	1.668	Db	inCorrect	1.654	ll	0.5332	0.5932	-0.06	10	4.505	0.017	0
339.0749	1.1009	Ed	Correct	1.085	wl.u	0.6963	0.5932	0.1031	30	4.505	0.017	0
342.5939	1.1009	dF	Correct	1.093	ll	0.633	0.5932	0.0398	10	4.505	0.017	0
346.6139	0.7172	dC	Correct	0.707	wl.l	0.7612	0.5932	0.168	40	4.505	0.017	0
350.1509	0.9174	bE	Correct	0.91	wl.u	0.6963	0.5332	0.1631	40	4.505	0.017	0
354.1869	1.0842	Cb	inCorrect	1.074	wl.u	0.5332	0.7612	-0.228	50	4.505	0.017	0
359.2079	1.4345	Ef	Correct	1.429	wl.l	0.6963	0.633	0.0633	20	4.505	0.017	0
362.7279	1.5846	dF	Correct	1.582	ll	0.633	0.5932	0.0398	10	4.505	0.017	0
367.2479	0.6005	eC	Correct	0.583	ww	0.7612	0.6963	0.0649	10	4.505	0.017	0
375.2709	1.3344	Cf	Correct	1.326	wl.u	0.7612	0.633	0.1282	30	4.505	0.017	0
378.7909	0.6505	dF	Correct	0.641	ll	0.633	0.5932	0.0398	10	4.505	0.017	0
382.3269	0.7339	Af	inCorrect	0.715	wl.u	0.633	0.8278	-0.1948	40	4.505	0.017	0
386.8469	0.7673	dF	Correct	0.749	ll	0.633	0.5932	0.0398	10	4.505	0.017	0
390.8669	1.3177	fA	inCorrect	1.311	wl.u	0.633	0.8278	-0.1948	40	4.505	0.017	0
398.8899	2.8856	cA	Correct	2.879	ww	0.8278	0.7612	0.0666	10	4.505	0.017	0
403.4109	0.9007	Fd	Correct	0.898	ll	0.633	0.5932	0.0398	10	4.505	0.017	0
406.4459	0.8674	Cd	inCorrect	0.858	wl.l	0.5932	0.7612	-0.168	40	4.505	0.017	0
411.4669	0.6506	dA	Correct	0.641	wl.u	0.8278	0.5932	0.2346	50	4.505	0.017	0
415.4869	0.7506	dE	Correct	0.734	wl.u	0.6963	0.5932	0.1031	30	4.505	0.017	0
423.0099	0.7006	bA	Correct	0.685	wl.l	0.8278	0.5332	0.2946	60	4.505	0.017	0
427.0299	0.9841	Ac	Correct	0.979	ww	0.8278	0.7612	0.0666	10	4.505	0.017	0
431.5499	0.8507	Cb	Correct	0.837	wl.u	0.7612	0.5332	0.228	50	4.505	0.017	0
435.0699	0.7673	Ed	Correct	0.765	wl.u	0.6963	0.5932	0.1031	30	4.505	0.017	0
438.6059	1.8015	eC	inCorrect	1.795	ww	0.6963	0.7612	-0.0649	10	4.505	0.017	0
443.6269	0.7839	Ef	inCorrect	0.782	wl.l	0.633	0.6963	-0.0633	20	4.505	0.017	0
447.1459	0.9007	bD	inCorrect	0.885	ll	0.5332	0.5932	-0.06	10	4.505	0.017	0
454.6859	0.9341	bE	Correct	0.92	wl.u	0.6963	0.5332	0.1631	40	4.505	0.017	0
458.7219	0.8173	Ce	Correct	0.813	ww	0.7612	0.6963	0.0649	10	4.505	0.017	0
462.7589	2.1017	Ae	Correct	2.088	ww	0.8278	0.6963	0.1315	20	4.505	0.017	0
466.7949	0.9007	Ce	inCorrect	0.887	ww	0.6963	0.7612	-0.0649	10	4.505	0.017	0
471.3159	0.6506	dE	Correct	0.644	wl.u	0.6963	0.5932	0.1031	30	4.505	0.017	0
475.3359	0.8673	Ef	inCorrect	0.854	wl.l	0.633	0.6963	-0.0633	20	4.505	0.017	0
479.8559	0.6672	Db	inCorrect	0.664	ll	0.5332	0.5932	-0.06	10	4.505	0.017	0
487.8789	0.6672	dA	Correct	0.659	wl.u	0.8278	0.5932	0.2346	50	4.505	0.017	0
495.9019	1.0842	fC	Correct	1.066	wl.u	0.7612	0.633	0.1282	30	4.505	0.017	0
498.9549	1.3178	Cf	inCorrect	1.307	wl.u	0.633	0.7612	-0.1282	30	4.505	0.017	0
507.4779	1.1009	bA	Correct	1.082	wl.l	0.8278	0.5332	0.2946	60	4.505	0.017	0
511.9989	1.1009	bD	inCorrect	1.095	ll	0.5332	0.5932	-0.06	10	4.505	0.017	0
515.0349	0.834	Ad	Correct	0.828	wl.u	0.8278	0.5932	0.2346	50	4.505	0.017	0
520.0549	1.0175	cA	Correct	1.015	ww	0.8278	0.7612	0.0666	10	4.505	0.017	0
524.0749	0.5838	Ac	inCorrect	0.581	ww	0.7612	0.8278	-0.0666	10	4.505	0.017	0
527.1109	0.9675	bC	inCorrect	0.964	wl.u	0.5332	0.7612	-0.228	50	4.505	0.017	0
531.1479	0.8341	fE	Correct	0.826	wl.l	0.6963	0.633	0.0633	20	4.505	0.017	0
