onset	duration	Pair	Response	RT	Cond	Q_choice	Q_notchosen	eQdiff	Rv_diff	Beta_Q	alpha_gain	alpha_loss
1.0336	1.3845	Ae	Correct	1.379	ww	0.9972	0.9894	0.0078	20	4.9353	0.1242	0.001
5.0536	1.0675	Eb	inCorrect	1.057	wl.u	0.6978	0.9894	-0.2916	40	4.9353	0.1242	0.001
8.5736	1.2844	bA	Correct	1.276	wl.l	0.9972	0.6978	0.2994	60	4.9353	0.1242	0.001
12.5926	1.4012	fC	Correct	1.386	wl.u	0.9962	0.933	0.0632	30	4.9353	0.1242	0.001
17.1136	1.0008	Af	Correct	0.986	wl.u	0.9972	0.933	0.0642	40	4.9353	0.1242	0.001
20.6326	1.201	Af	Correct	1.186	wl.u	0.9972	0.933	0.0642	40	4.9353	0.1242	0.001
25.1536	1.0675	bD	Correct	1.059	ll	0.7365	0.6978	0.0387	10	4.9353	0.1242	0.001
32.6756	1.3177	Cd	Correct	1.305	wl.l	0.9962	0.7365	0.2597	40	4.9353	0.1242	0.001
37.1966	1.5846	bC	inCorrect	1.578	wl.u	0.6978	0.9962	-0.2984	50	4.9353	0.1242	0.001
41.2166	1.7014	dE	Correct	1.693	wl.u	0.9894	0.7365	0.2529	30	4.9353	0.1242	0.001
45.2356	1.4011	Ef	Correct	1.394	wl.l	0.9894	0.933	0.0564	20	4.9353	0.1242	0.001
48.2716	0.8507	bA	Correct	0.834	wl.l	0.9972	0.6978	0.2994	60	4.9353	0.1242	0.001
56.7956	0.9174	Ef	inCorrect	0.902	wl.l	0.933	0.9894	-0.0564	20	4.9353	0.1242	0.001
60.8156	0.8841	cA	Correct	0.872	ww	0.9972	0.9962	0.001	10	4.9353	0.1242	0.001
64.3516	1.0175	eA	Correct	1.009	ww	0.9972	0.9894	0.0078	20	4.9353	0.1242	0.001
69.3726	1.6013	Ef	inCorrect	1.584	wl.l	0.933	0.9894	-0.0564	20	4.9353	0.1242	0.001
73.3916	1.0342	fE	inCorrect	1.025	wl.l	0.933	0.9894	-0.0564	20	4.9353	0.1242	0.001
80.9146	1.1342	Cb	Correct	1.121	wl.u	0.9962	0.6978	0.2984	50	4.9353	0.1242	0.001
84.9346	0.7839	eA	Correct	0.768	ww	0.9972	0.9894	0.0078	20	4.9353	0.1242	0.001
89.4546	0.9174	Ae	Correct	0.913	ww	0.9972	0.9894	0.0078	20	4.9353	0.1242	0.001
92.9746	1.7181	Fd	inCorrect	1.708	ll	0.7365	0.933	-0.1965	10	4.9353	0.1242	0.001
101.4976	0.7006	bC	Correct	0.685	wl.u	0.9962	0.6978	0.2984	50	4.9353	0.1242	0.001
105.5176	1.1176	Cf	Correct	1.113	wl.u	0.9962	0.933	0.0632	30	4.9353	0.1242	0.001
108.5536	1.618	dF	Correct	1.602	ll	0.933	0.7365	0.1965	10	4.9353	0.1242	0.001
113.0736	1.1676	dC	Correct	1.152	wl.l	0.9962	0.7365	0.2597	40	4.9353	0.1242	0.001
117.5946	1.1843	cA	inCorrect	1.181	ww	0.9962	0.9972	-0.001	10	4.9353	0.1242	0.001
121.6146	1.3177	fA	inCorrect	1.311	wl.u	0.933	0.9972	-0.0642	40	4.9353	0.1242	0.001
125.6346	1.351	fE	Correct	1.346	wl.l	0.9894	0.933	0.0564	20	4.9353	0.1242	0.001
129.6546	1.3177	Ac	Correct	1.3	ww	0.9972	0.9962	0.001	10	4.9353	0.1242	0.001
133.1736	1.4345	Eb	Correct	1.428	wl.u	0.9894	0.6978	0.2916	40	4.9353	0.1242	0.001
137.1936	0.9507	dF	Correct	0.937	ll	0.933	0.7365	0.1965	10	4.9353	0.1242	0.001
141.7136	1.3844	dC	Correct	1.367	wl.l	0.9962	0.7365	0.2597	40	4.9353	0.1242	0.001
149.7366	1.4679	bE	inCorrect	1.46	wl.u	0.6978	0.9894	-0.2916	40	4.9353	0.1242	0.001
153.7566	0.8507	Ad	Correct	0.841	wl.u	0.9972	0.7365	0.2607	50	4.9353	0.1242	0.001
157.2766	0.9508	bA	Correct	0.942	wl.l	0.9972	0.6978	0.2994	60	4.9353	0.1242	0.001
160.8126	1.0008	Cd	Correct	0.985	wl.l	0.9962	0.7365	0.2597	40	4.9353	0.1242	0.001
165.3326	0.8674	Db	inCorrect	0.852	ll	0.6978	0.7365	-0.0387	10	4.9353	0.1242	0.001
168.8686	0.784	Af	Correct	0.768	wl.u	0.9972	0.933	0.0642	40	4.9353	0.1242	0.001
173.3896	1.6013	Ce	Correct	1.597	ww	0.9962	0.9894	0.0068	10	4.9353	0.1242	0.001
177.9096	1.7014	Ac	Correct	1.689	ww	0.9972	0.9962	0.001	10	4.9353	0.1242	0.001
181.9296	1.8849	fE	Correct	1.87	wl.l	0.9894	0.933	0.0564	20	4.9353	0.1242	0.001
184.9656	1.6013	Ed	inCorrect	1.59	wl.u	0.7365	0.9894	-0.2529	30	4.9353	0.1242	0.001
193.0056	1.3845	cA	inCorrect	1.381	ww	0.9962	0.9972	-0.001	10	4.9353	0.1242	0.001
198.0256	1.668	dC	inCorrect	1.663	wl.l	0.7365	0.9962	-0.2597	40	4.9353	0.1242	0.001
202.0456	1.0174	bC	inCorrect	1.003	wl.u	0.6978	0.9962	-0.2984	50	4.9353	0.1242	0.001
206.0656	1.7347	fA	Correct	1.72	wl.u	0.9972	0.933	0.0642	40	4.9353	0.1242	0.001
209.1016	1.7347	bE	inCorrect	1.724	wl.u	0.6978	0.9894	-0.2916	40	4.9353	0.1242	0.001
213.6216	1.9182	dC	Correct	1.913	wl.l	0.9962	0.7365	0.2597	40	4.9353	0.1242	0.001
218.1426	1.9516	bE	inCorrect	1.94	wl.u	0.6978	0.9894	-0.2916	40	4.9353	0.1242	0.001
226.1656	1.3177	Ae	Correct	1.314	ww	0.9972	0.9894	0.0078	20	4.9353	0.1242	0.001
229.6846	2.2018	Ed	inCorrect	2.192	wl.u	0.7365	0.9894	-0.2529	30	4.9353	0.1242	0.001
237.2246	1.6347	Fd	Correct	1.62	ll	0.933	0.7365	0.1965	10	4.9353	0.1242	0.001
241.2606	2.1684	dE	inCorrect	2.151	wl.u	0.7365	0.9894	-0.2529	30	4.9353	0.1242	0.001
246.2816	1.1343	fA	Correct	1.127	wl.u	0.9972	0.933	0.0642	40	4.9353	0.1242	0.001
249.8006	1.668	Ad	inCorrect	1.652	wl.u	0.7365	0.9972	-0.2607	50	4.9353	0.1242	0.001
254.3216	2.2185	eA	Correct	2.215	ww	0.9972	0.9894	0.0078	20	4.9353	0.1242	0.001
257.3566	1.9182	dF	inCorrect	1.911	ll	0.7365	0.933	-0.1965	10	4.9353	0.1242	0.001
261.8776	2.1351	bE	inCorrect	2.128	wl.u	0.6978	0.9894	-0.2916	40	4.9353	0.1242	0.001
266.3976	1.6013	bA	Correct	1.589	wl.l	0.9972	0.6978	0.2994	60	4.9353	0.1242	0.001
270.4176	0.8007	fC	Correct	0.794	wl.u	0.9962	0.933	0.0632	30	4.9353	0.1242	0.001
273.9376	0.9174	Ae	Correct	0.912	ww	0.9972	0.9894	0.0078	20	4.9353	0.1242	0.001
277.9566	1.3844	fA	Correct	1.378	wl.u	0.9972	0.933	0.0642	40	4.9353	0.1242	0.001
286.4806	1.7681	fC	Correct	1.763	wl.u	0.9962	0.933	0.0632	30	4.9353	0.1242	0.001
289.5166	1.1843	bA	Correct	1.182	wl.l	0.9972	0.6978	0.2994	60	4.9353	0.1242	0.001
294.0366	1.7347	dF	Correct	1.723	ll	0.933	0.7365	0.1965	10	4.9353	0.1242	0.001
298.0566	2.6188	fA	Correct	2.609	wl.u	0.9972	0.933	0.0642	40	4.9353	0.1242	0.001
301.5926	1.3844	dE	inCorrect	1.381	wl.u	0.7365	0.9894	-0.2529	30	4.9353	0.1242	0.001
306.1126	1.5179	bD	Correct	1.511	ll	0.7365	0.6978	0.0387	10	4.9353	0.1242	0.001
310.6336	1.1843	Ac	inCorrect	1.181	ww	0.9962	0.9972	-0.001	10	4.9353	0.1242	0.001
314.1526	1.5346	Cf	Correct	1.525	wl.u	0.9962	0.933	0.0632	30	4.9353	0.1242	0.001
318.6736	1.4178	Cb	Correct	1.413	wl.u	0.9962	0.6978	0.2984	50	4.9353	0.1242	0.001
326.1956	1.6346	fC	Correct	1.616	wl.u	0.9962	0.933	0.0632	30	4.9353	0.1242	0.001
330.7166	1.3677	Cb	Correct	1.354	wl.u	0.9962	0.6978	0.2984	50	4.9353	0.1242	0.001
333.7516	1.4012	Af	Correct	1.39	wl.u	0.9972	0.933	0.0642	40	4.9353	0.1242	0.001
342.2756	1.718	Db	inCorrect	1.7	ll	0.6978	0.7365	-0.0387	10	4.9353	0.1242	0.001
346.2956	1.1843	Cd	Correct	1.181	wl.l	0.9962	0.7365	0.2597	40	4.9353	0.1242	0.001
350.8156	1.618	Ef	Correct	1.6	wl.l	0.9894	0.933	0.0564	20	4.9353	0.1242	0.001
353.8686	1.4678	fE	Correct	1.46	wl.l	0.9894	0.933	0.0564	20	4.9353	0.1242	0.001
358.3886	1.5846	fC	Correct	1.571	wl.u	0.9962	0.933	0.0632	30	4.9353	0.1242	0.001
362.9086	1.7681	Cb	Correct	1.753	wl.u	0.9962	0.6978	0.2984	50	4.9353	0.1242	0.001
366.9286	3.0024	dE	omission	0	wl.u	0.7365	0.9894	-0.2529	30	4.9353	0.1242	0.001
371.9496	3.9866	Db	omission	0	ll	0.6978	0.7365	-0.0387	10	4.9353	0.1242	0.001
378.4376	1.0842	Db	inCorrect	1.077	ll	0.6978	0.7365	-0.0387	10	4.9353	0.1242	0.001
382.4576	1.2343	Cf	Correct	1.221	wl.u	0.9962	0.933	0.0632	30	4.9353	0.1242	0.001
386.9786	0.9007	eC	Correct	0.889	ww	0.9962	0.9894	0.0068	10	4.9353	0.1242	0.001
395.0016	1.1843	Ae	Correct	1.166	ww	0.9972	0.9894	0.0078	20	4.9353	0.1242	0.001
398.5376	0.9341	cA	inCorrect	0.926	ww	0.9962	0.9972	-0.001	10	4.9353	0.1242	0.001
402.0736	1.5012	Fb	inCorrect	1.498	ll	0.6978	0.933	-0.2352	20	4.9353	0.1242	0.001
406.5936	1.3511	Ef	inCorrect	1.347	wl.l	0.933	0.9894	-0.0564	20	4.9353	0.1242	0.001
414.6176	1.1676	Fb	Correct	1.161	ll	0.933	0.6978	0.2352	20	4.9353	0.1242	0.001
418.1536	1.0342	Cb	Correct	1.018	wl.u	0.9962	0.6978	0.2984	50	4.9353	0.1242	0.001
422.6736	1.2677	Fb	Correct	1.255	ll	0.933	0.6978	0.2352	20	4.9353	0.1242	0.001
426.6936	0.9508	Cd	Correct	0.948	wl.l	0.9962	0.7365	0.2597	40	4.9353	0.1242	0.001
430.7136	1.1677	Eb	Correct	1.154	wl.u	0.9894	0.6978	0.2916	40	4.9353	0.1242	0.001
434.7336	0.7506	eC	Correct	0.748	ww	0.9962	0.9894	0.0068	10	4.9353	0.1242	0.001
439.2536	0.9841	dF	inCorrect	0.976	ll	0.7365	0.933	-0.1965	10	4.9353	0.1242	0.001
442.7736	1.0175	Ab	inCorrect	1.007	wl.l	0.6978	0.9972	-0.2994	60	4.9353	0.1242	0.001
446.7936	1.3177	bF	inCorrect	1.301	ll	0.6978	0.933	-0.2352	20	4.9353	0.1242	0.001
450.3296	1.2009	Cb	Correct	1.189	wl.u	0.9962	0.6978	0.2984	50	4.9353	0.1242	0.001
454.3656	1.2176	eA	Correct	1.204	ww	0.9972	0.9894	0.0078	20	4.9353	0.1242	0.001
458.8866	1.5179	eC	Correct	1.509	ww	0.9962	0.9894	0.0068	10	4.9353	0.1242	0.001
463.4066	1.2009	Ed	Correct	1.194	wl.u	0.9894	0.7365	0.2529	30	4.9353	0.1242	0.001
470.4456	1.6513	fC	inCorrect	1.641	wl.u	0.933	0.9962	-0.0632	30	4.9353	0.1242	0.001
474.4826	0.884	Ce	Correct	0.87	ww	0.9962	0.9894	0.0068	10	4.9353	0.1242	0.001
479.5026	0.6505	Ce	Correct	0.641	ww	0.9962	0.9894	0.0068	10	4.9353	0.1242	0.001
482.5386	0.8006	bC	Correct	0.785	wl.u	0.9962	0.6978	0.2984	50	4.9353	0.1242	0.001
487.0586	1.1509	cA	inCorrect	1.138	ww	0.9962	0.9972	-0.001	10	4.9353	0.1242	0.001
490.5956	0.7672	Cd	Correct	0.76	wl.l	0.9962	0.7365	0.2597	40	4.9353	0.1242	0.001
495.6156	1.8014	bD	Correct	1.783	ll	0.7365	0.6978	0.0387	10	4.9353	0.1242	0.001
499.1516	1.1175	eA	Correct	1.113	ww	0.9972	0.9894	0.0078	20	4.9353	0.1242	0.001
503.6726	1.2843	Cb	Correct	1.278	wl.u	0.9962	0.6978	0.2984	50	4.9353	0.1242	0.001
507.1916	0.9007	Eb	inCorrect	0.893	wl.u	0.6978	0.9894	-0.2916	40	4.9353	0.1242	0.001
511.2116	1.4845	Ac	Correct	1.477	ww	0.9972	0.9962	0.001	10	4.9353	0.1242	0.001
514.7476	1.4011	fC	Correct	1.385	wl.u	0.9962	0.933	0.0632	30	4.9353	0.1242	0.001
519.7686	0.8507	Db	Correct	0.834	ll	0.7365	0.6978	0.0387	10	4.9353	0.1242	0.001
522.8046	0.7672	Cd	Correct	0.756	wl.l	0.9962	0.7365	0.2597	40	4.9353	0.1242	0.001
531.3276	1.6013	Ac	Correct	1.59	ww	0.9972	0.9962	0.001	10	4.9353	0.1242	0.001
534.8646	1.5012	Af	Correct	1.491	wl.u	0.9972	0.933	0.0642	40	4.9353	0.1242	0.001
542.9036	1.6513	eC	Correct	1.634	ww	0.9962	0.9894	0.0068	10	4.9353	0.1242	0.001
547.4246	1.5679	bF	Correct	1.556	ll	0.933	0.6978	0.2352	20	4.9353	0.1242	0.001
