onset	duration	Pair	Choice	Response	RT	Feedback_Onset	Feedback_duration	Balance	RPE	Q_chosen	Q_notchosen	npair	Beta_Q	alpha_gain	alpha_loss
1.5346	1.3312	EF	E	Correct	1.331	3.1658	0.5039	-1	-0.5993	0.5993	0.496	56	11.0569	0.0411	0.0426
4.5348	1.0031	CD	C	Correct	0.984	5.8214	0.5171	1	0.265	0.735	0.4388	34	11.0569	0.0411	0.0426
9.5578	0.7339	CD	C	Correct	0.725	10.592	0.5171	-1	-0.7458	0.7458	0.4388	34	11.0569	0.0411	0.0426
13.5777	0.8841	FE	E	Correct	0.879	14.762	0.5171	1	0.4262	0.5738	0.496	56	11.0569	0.0411	0.0426
17.5977	1.1843	FE	E	Correct	1.176	19.0822	0.5171	1	0.4087	0.5913	0.496	56	11.0569	0.0411	0.0426
21.6176	0.9341	DC	C	Correct	0.918	22.8519	0.5171	-1	-0.714	0.714	0.4388	34	11.0569	0.0411	0.0426
25.6375	0.9508	DC	C	Correct	0.941	26.8885	0.5171	1	0.3164	0.6836	0.4388	34	11.0569	0.0411	0.0426
28.6566	0.7173	AB	A	Correct	0.703	29.6741	0.5171	1	0.2451	0.7549	0.4037	12	11.0569	0.0411	0.0426
33.177	1.0342	FE	E	Correct	1.029	34.5114	0.5171	-1	-0.6081	0.6081	0.496	56	11.0569	0.0411	0.0426
36.2128	1.0008	DC	C	Correct	0.994	37.5138	0.5171	1	0.3034	0.6966	0.4388	34	11.0569	0.0411	0.0426
41.7339	1.1176	AB	A	Correct	1.115	43.1517	0.5171	-1	-0.7649	0.7649	0.4037	12	11.0569	0.0411	0.0426
44.753	1.1176	FE	E	Correct	1.109	46.1709	0.5171	1	0.4179	0.5821	0.496	56	11.0569	0.0411	0.0426
48.2893	0.8173	FE	E	Correct	0.813	49.4068	0.5171	-1	-0.5993	0.5993	0.496	56	11.0569	0.0411	0.0426
53.8104	1.1343	BA	A	Correct	1.123	55.2449	0.5171	-1	-0.7323	0.7323	0.4037	12	11.0569	0.0411	0.0426
56.3458	0.9674	FE	E	Correct	0.954	57.6135	0.5171	1	0.4263	0.5737	0.496	56	11.0569	0.0411	0.0426
60.8661	0.9675	DC	C	Correct	0.95	62.1338	0.5171	-1	-0.7091	0.7091	0.4388	34	11.0569	0.0411	0.0426
65.8869	1.1509	EF	F	Incorrect	1.148	67.3381	0.517	1	0.504	0.496	0.5912	56	11.0569	0.0411	0.0426
69.4064	0.7673	FE	F	Incorrect	0.76	70.4739	0.5171	-1	-0.5166	0.5166	0.5912	56	11.0569	0.0411	0.0426
73.4263	0.8007	EF	E	Correct	0.792	74.5272	0.5171	1	0.4088	0.5912	0.4946	56	11.0569	0.0411	0.0426
76.4621	0.9008	CD	C	Correct	0.888	77.6631	0.5171	-1	-0.6788	0.6788	0.4388	34	11.0569	0.0411	0.0426
80.9825	0.6839	BA	A	Correct	0.669	81.9666	0.5171	1	0.2989	0.7011	0.4037	12	11.0569	0.0411	0.0426
88.5219	0.8841	CD	C	Correct	0.868	89.7062	0.5171	-1	-0.6499	0.6499	0.4388	34	11.0569	0.0411	0.0426
97.0455	0.9007	DC	C	Correct	0.884	98.2465	0.5171	1	0.3778	0.6222	0.4388	34	11.0569	0.0411	0.0426
101.5658	0.8674	AB	A	Correct	0.858	102.7335	0.517	1	0.2866	0.7134	0.4037	12	11.0569	0.0411	0.0426
104.6016	0.8341	FE	E	Correct	0.823	105.7359	0.5171	-1	-0.608	0.608	0.4946	56	11.0569	0.0411	0.0426
108.6383	0.7672	BA	A	Correct	0.755	109.7058	0.5171	1	0.2749	0.7251	0.4037	12	11.0569	0.0411	0.0426
113.659	1.0342	EF	F	Incorrect	1.026	114.9934	0.5171	1	0.5054	0.4946	0.5821	56	11.0569	0.0411	0.0426
118.1793	1.1009	DC	C	Correct	1.088	119.5805	0.5171	1	0.3623	0.6377	0.4388	34	11.0569	0.0411	0.0426
121.6989	1.0008	CD	C	Correct	0.994	122.9999	0.5171	-1	-0.6526	0.6526	0.4388	34	11.0569	0.0411	0.0426
125.2184	1.0842	DC	C	Correct	1.082	126.6028	0.5171	-1	-0.6247	0.6247	0.4388	34	11.0569	0.0411	0.0426
129.722	0.734	BA	A	Correct	0.73	130.7562	0.5171	1	0.2636	0.7364	0.4037	12	11.0569	0.0411	0.0426
137.2448	1.0175	AB	A	Correct	1.015	138.5625	0.5171	1	0.2528	0.7472	0.4037	12	11.0569	0.0411	0.0426
142.2489	1.1342	DC	C	Correct	1.12	143.6834	0.5171	-1	-0.5981	0.5981	0.4388	34	11.0569	0.0411	0.0426
148.7875	0.7339	BA	A	Correct	0.725	149.8217	0.5171	1	0.2424	0.7576	0.4037	12	11.0569	0.0411	0.0426
152.8241	0.784	BA	A	Correct	0.771	153.9083	0.5171	1	0.2324	0.7676	0.4037	12	11.0569	0.0411	0.0426
157.3445	0.9841	BA	A	Correct	0.973	158.6288	0.5171	1	0.2229	0.7771	0.4037	12	11.0569	0.0411	0.0426
161.8648	1.0842	CD	C	Correct	1.069	163.2493	0.517	1	0.4274	0.5726	0.4388	34	11.0569	0.0411	0.0426
166.3851	0.7173	EF	F	Incorrect	0.71	167.4026	0.5171	1	0.4846	0.5154	0.5821	56	11.0569	0.0411	0.0426
168.9205	1.3511	FE	F	Incorrect	1.345	170.5719	0.5171	-1	-0.5353	0.5353	0.5821	56	11.0569	0.0411	0.0426
173.9413	1.0675	DC	D	Incorrect	1.064	175.3091	0.517	-1	-0.4388	0.4388	0.5902	34	11.0569	0.0411	0.0426
182.4649	1.0842	CD	D	Incorrect	1.069	183.8493	0.5171	-1	-0.4201	0.4201	0.5902	34	11.0569	0.0411	0.0426
186.4848	1.5679	EF	E	Correct	1.554	188.353	0.5171	1	0.4179	0.5821	0.5124	56	11.0569	0.0411	0.0426
190.5047	1.2844	BA	A	Correct	1.28	192.0893	0.5171	1	0.2137	0.7863	0.4037	12	11.0569	0.0411	0.0426
198.5279	1.1009	BA	A	Correct	1.085	199.929	0.5171	-1	-0.795	0.795	0.4037	12	11.0569	0.0411	0.0426
202.0474	1.2844	DC	C	Correct	1.282	203.632	0.5171	1	0.4098	0.5902	0.4022	34	11.0569	0.0411	0.0426
205.0832	0.7506	BA	A	Correct	0.735	206.1341	0.5171	-1	-0.7611	0.7611	0.4037	12	11.0569	0.0411	0.0426
209.1198	1.151	CD	C	Correct	1.137	210.571	0.5171	1	0.393	0.607	0.4022	34	11.0569	0.0411	0.0426
213.6402	1.0341	FE	E	Correct	1.024	214.9746	0.5171	-1	-0.5993	0.5993	0.5124	56	11.0569	0.0411	0.0426
217.1764	1.0175	CD	C	Correct	1.015	218.4941	0.5171	1	0.3769	0.6231	0.4022	34	11.0569	0.0411	0.0426
222.1804	0.9675	FE	E	Correct	0.949	223.4315	0.517	1	0.4263	0.5737	0.5124	56	11.0569	0.0411	0.0426
226.2004	1.3177	CD	C	Correct	1.31	227.8184	0.517	1	0.3614	0.6386	0.4022	34	11.0569	0.0411	0.0426
229.7199	0.9341	EF	F	Incorrect	0.92	230.9542	0.5171	-1	-0.5124	0.5124	0.5912	56	11.0569	0.0411	0.0426
234.2402	1.1676	DC	C	Correct	1.155	235.7081	0.5171	1	0.3466	0.6534	0.4022	34	11.0569	0.0411	0.0426
238.2602	0.7339	BA	A	Correct	0.73	239.2943	0.5171	1	0.2713	0.7287	0.4037	12	11.0569	0.0411	0.0426
242.2801	1.2677	FE	E	Correct	1.265	243.848	0.5171	1	0.4088	0.5912	0.4906	56	11.0569	0.0411	0.0426
246.3	0.9008	AB	A	Correct	0.897	247.501	0.5171	1	0.2602	0.7398	0.4037	12	11.0569	0.0411	0.0426
249.8195	1.1009	EF	E	Correct	1.09	251.2207	0.5171	1	0.392	0.608	0.4906	56	11.0569	0.0411	0.0426
254.3399	1.0342	BA	A	Correct	1.018	255.6743	0.5171	1	0.2495	0.7505	0.4037	12	11.0569	0.0411	0.0426
257.8594	1.3511	CD	D	Incorrect	1.347	259.5107	0.5171	1	0.5978	0.4022	0.6677	34	11.0569	0.0411	0.0426
261.3956	1.0842	DC	D	Incorrect	1.075	262.7801	0.5171	-1	-0.4267	0.4267	0.6677	34	11.0569	0.0411	0.0426
266.4164	1.2676	EF	E	Correct	1.258	267.9843	0.5171	1	0.3759	0.6241	0.4906	56	11.0569	0.0411	0.0426
274.4395	1.151	FE	E	Correct	1.148	275.8907	0.5171	1	0.3605	0.6395	0.4906	56	11.0569	0.0411	0.0426
278.9599	0.834	FE	E	Correct	0.819	280.0941	0.5171	-1	-0.6543	0.6543	0.4906	56	11.0569	0.0411	0.0426
286.4827	1.1842	DC	C	Correct	1.182	287.9672	0.5171	1	0.3323	0.6677	0.4085	34	11.0569	0.0411	0.0426
289.5184	0.9341	BA	A	Correct	0.916	290.7528	0.5171	1	0.2392	0.7608	0.4037	12	11.0569	0.0411	0.0426
294.5392	0.9841	AB	A	Correct	0.976	295.8236	0.5171	-1	-0.7706	0.7706	0.4037	12	11.0569	0.0411	0.0426
299.0595	0.6172	EF	F	Incorrect	0.611	299.9769	0.5171	1	0.5094	0.4906	0.6264	56	11.0569	0.0411	0.0426
302.0786	0.784	BA	A	Correct	0.778	303.1629	0.517	1	0.2623	0.7377	0.4037	12	11.0569	0.0411	0.0426
307.0994	0.9508	FE	E	Correct	0.941	308.3504	0.5171	-1	-0.6264	0.6264	0.5115	56	11.0569	0.0411	0.0426
310.1185	1.2177	EF	E	Correct	1.213	311.6364	0.5171	1	0.4003	0.5997	0.5115	56	11.0569	0.0411	0.0426
315.1392	1.3678	CD	C	Correct	1.362	316.8073	0.5171	-1	-0.6813	0.6813	0.4085	34	11.0569	0.0411	0.0426
318.6588	0.7172	FE	E	Correct	0.711	319.6763	0.5171	1	0.3838	0.6162	0.5115	56	11.0569	0.0411	0.0426
322.1783	0.7673	FE	E	Correct	0.756	323.2458	0.5171	-1	-0.6319	0.6319	0.5115	56	11.0569	0.0411	0.0426
326.1982	0.6672	BA	A	Correct	0.651	327.1657	0.5171	1	0.2515	0.7485	0.4037	12	11.0569	0.0411	0.0426
330.2182	0.884	EF	E	Correct	0.879	331.4025	0.517	1	0.395	0.605	0.5115	56	11.0569	0.0411	0.0426
334.2381	0.784	AB	A	Correct	0.78	335.3223	0.5171	1	0.2412	0.7588	0.4037	12	11.0569	0.0411	0.0426
337.7743	0.9841	CD	C	Correct	0.98	339.0587	0.5171	1	0.3477	0.6523	0.4085	34	11.0569	0.0411	0.0426
341.8109	0.8841	CD	C	Correct	0.871	342.9952	0.5171	1	0.3335	0.6665	0.4085	34	11.0569	0.0411	0.0426
346.3312	1.1343	FE	E	Correct	1.126	347.7657	0.5171	1	0.3788	0.6212	0.5115	56	11.0569	0.0411	0.0426
349.8674	0.8341	BA	A	Correct	0.822	351.0017	0.5171	1	0.2313	0.7687	0.4037	12	11.0569	0.0411	0.0426
354.3878	0.9841	CD	C	Correct	0.974	355.6722	0.517	1	0.3198	0.6802	0.4085	34	11.0569	0.0411	0.0426
358.9081	0.8841	EF	E	Correct	0.881	360.0924	0.5171	1	0.3633	0.6367	0.5115	56	11.0569	0.0411	0.0426
362.4276	0.6673	EF	E	Correct	0.658	363.3951	0.5171	-1	-0.6517	0.6517	0.5115	56	11.0569	0.0411	0.0426
367.4484	1.5012	DC	C	Correct	1.489	369.2498	0.5171	-1	-0.6934	0.6934	0.4085	34	11.0569	0.0411	0.0426
371.4683	1.0008	FE	E	Correct	0.993	372.7694	0.5171	1	0.3761	0.6239	0.5115	56	11.0569	0.0411	0.0426
374.4874	1.0509	AB	A	Correct	1.041	375.8385	0.5171	1	0.2218	0.7782	0.4037	12	11.0569	0.0411	0.0426
378.5074	1.1175	DC	C	Correct	1.108	379.9252	0.5171	-1	-0.6638	0.6638	0.4085	34	11.0569	0.0411	0.0426
382.5273	0.7506	EF	E	Correct	0.748	383.5782	0.517	1	0.3607	0.6393	0.5115	56	11.0569	0.0411	0.0426
386.5472	0.6506	EF	E	Correct	0.643	387.498	0.5171	1	0.3459	0.6541	0.5115	56	11.0569	0.0411	0.0426
390.0834	0.7673	EF	E	Correct	0.758	391.151	0.517	-1	-0.6683	0.6683	0.5115	56	11.0569	0.0411	0.0426
395.1042	0.8507	CD	C	Correct	0.839	396.2551	0.5171	1	0.3645	0.6355	0.4085	34	11.0569	0.0411	0.0426
399.1241	0.7673	CD	C	Correct	0.761	400.1916	0.5171	1	0.3495	0.6505	0.4085	34	11.0569	0.0411	0.0426
403.144	0.734	CD	C	Correct	0.719	404.1782	0.5171	1	0.3352	0.6648	0.4085	34	11.0569	0.0411	0.0426
407.164	1.0175	FE	E	Correct	1.011	408.4817	0.5171	-1	-0.6398	0.6398	0.5115	56	11.0569	0.0411	0.0426
411.1839	1.0509	EF	E	Correct	1.038	412.535	0.5171	1	0.3874	0.6126	0.5115	56	11.0569	0.0411	0.0426
415.7042	0.9174	DC	C	Correct	0.912	416.9219	0.5171	-1	-0.6786	0.6786	0.4085	34	11.0569	0.0411	0.0426
419.2238	0.5504	DC	C	Correct	0.537	420.0745	0.517	1	0.3504	0.6496	0.4085	34	11.0569	0.0411	0.0426
423.7441	0.8006	EF	E	Correct	0.794	424.845	0.5171	1	0.3715	0.6285	0.5115	56	11.0569	0.0411	0.0426
426.7632	0.7006	FE	E	Correct	0.684	427.764	0.5171	1	0.3563	0.6437	0.5115	56	11.0569	0.0411	0.0426
431.784	0.8673	DC	C	Correct	0.853	432.9516	0.5171	1	0.336	0.664	0.4085	34	11.0569	0.0411	0.0426
435.3035	0.7339	CD	C	Correct	0.717	436.3377	0.517	-1	-0.6778	0.6778	0.4085	34	11.0569	0.0411	0.0426
439.3234	0.8173	DC	C	Correct	0.801	440.441	0.5171	1	0.3511	0.6489	0.4085	34	11.0569	0.0411	0.0426
443.3433	0.8174	FE	E	Correct	0.8	444.4609	0.5171	-1	-0.6583	0.6583	0.5115	56	11.0569	0.0411	0.0426
446.8629	1.1509	DC	C	Correct	1.145	448.314	0.5171	-1	-0.6633	0.6633	0.4085	34	11.0569	0.0411	0.0426
450.3991	0.9841	CD	C	Correct	0.981	451.6834	0.5171	1	0.3649	0.6351	0.4085	34	11.0569	0.0411	0.0426
458.9227	0.834	FE	E	Correct	0.821	460.0569	0.5171	1	0.3697	0.6303	0.5115	56	11.0569	0.0411	0.0426
462.9426	1.4011	CD	C	Correct	1.392	464.644	0.5171	1	0.35	0.65	0.4085	34	11.0569	0.0411	0.0426
467.4629	1.2177	AB	A	Correct	1.207	468.9808	0.5171	1	0.2127	0.7873	0.4037	12	11.0569	0.0411	0.0426
470.9824	0.8841	DC	C	Correct	0.869	472.1667	0.5171	1	0.3356	0.6644	0.4085	34	11.0569	0.0411	0.0426
476.0032	0.884	BA	A	Correct	0.88	477.1875	0.5171	1	0.2039	0.7961	0.4037	12	11.0569	0.0411	0.0426
483.526	1.3511	CD	C	Correct	1.346	485.1773	0.5171	1	0.3218	0.6782	0.4085	34	11.0569	0.0411	0.0426
491.5491	0.8674	AB	A	Correct	0.864	492.7168	0.517	1	0.1956	0.8044	0.4037	12	11.0569	0.0411	0.0426
495.5691	0.9174	AB	A	Correct	0.906	496.7867	0.5171	1	0.1875	0.8125	0.4037	12	11.0569	0.0411	0.0426
500.0894	0.7506	EF	F	Incorrect	0.746	501.1403	0.5171	1	0.4885	0.5115	0.6455	56	11.0569	0.0411	0.0426
502.6248	1.0675	AB	A	Correct	1.062	503.9926	0.5171	1	0.1798	0.8202	0.4037	12	11.0569	0.0411	0.0426
507.6456	0.7005	FE	E	Correct	0.683	508.6464	0.517	-1	-0.6455	0.6455	0.5316	56	11.0569	0.0411	0.0426
510.6813	0.8841	AB	A	Correct	0.877	511.8656	0.5171	-1	-0.8275	0.8275	0.4037	12	11.0569	0.0411	0.0426
515.2017	0.7339	CD	C	Correct	0.726	516.2359	0.517	-1	-0.6914	0.6914	0.4085	34	11.0569	0.0411	0.0426
520.2224	0.834	AB	A	Correct	0.822	521.3567	0.5171	1	0.2077	0.7923	0.4037	12	11.0569	0.0411	0.0426
523.2415	0.9842	FE	E	Correct	0.971	524.5259	0.5171	1	0.3821	0.6179	0.5316	56	11.0569	0.0411	0.0426
526.7778	0.8506	AB	A	Correct	0.845	527.9287	0.5171	-1	-0.8008	0.8008	0.4037	12	11.0569	0.0411	0.0426
530.8144	0.7339	AB	A	Correct	0.718	531.8485	0.5171	1	0.2333	0.7667	0.4037	12	11.0569	0.0411	0.0426
534.851	1.3344	DC	C	Correct	1.327	536.4856	0.5171	1	0.3381	0.6619	0.4085	34	11.0569	0.0411	0.0426
539.3713	1.4345	EF	E	Correct	1.418	541.1061	0.517	1	0.3664	0.6336	0.5316	56	11.0569	0.0411	0.0426
547.8949	0.9341	EF	E	Correct	0.918	549.1292	0.5171	1	0.3513	0.6487	0.5316	56	11.0569	0.0411	0.0426
551.4144	0.8674	AB	A	Correct	0.858	552.582	0.5171	1	0.2238	0.7762	0.4037	12	11.0569	0.0411	0.0426
555.4344	0.7672	AB	A	Correct	0.752	556.5019	0.5171	-1	-0.7854	0.7854	0.4037	12	11.0569	0.0411	0.0426
559.9547	0.7172	BA	A	Correct	0.699	560.9722	0.5171	1	0.2481	0.7519	0.4037	12	11.0569	0.0411	0.0426
563.0072	1.0842	AB	A	Correct	1.077	564.3916	0.5171	-1	-0.7621	0.7621	0.4037	12	11.0569	0.0411	0.0426
567.0438	1.1176	CD	C	Correct	1.106	568.4616	0.5171	1	0.3242	0.6758	0.4085	34	11.0569	0.0411	0.0426
571.5641	0.8007	BA	A	Correct	0.793	572.665	0.5171	1	0.2704	0.7296	0.4037	12	11.0569	0.0411	0.0426
576.5849	0.8673	FE	E	Correct	0.865	577.7525	0.5171	-1	-0.6631	0.6631	0.5316	56	11.0569	0.0411	0.0426
579.1202	0.9508	BA	A	Correct	0.936	580.3713	0.517	-1	-0.7407	0.7407	0.4037	12	11.0569	0.0411	0.0426
583.6406	0.9341	DC	C	Correct	0.919	584.8749	0.5171	1	0.3109	0.6891	0.4085	34	11.0569	0.0411	0.0426
588.6613	0.834	BA	A	Correct	0.831	589.7956	0.5171	1	0.2909	0.7091	0.4037	12	11.0569	0.0411	0.0426
592.1809	0.8006	AB	A	Correct	0.793	593.2817	0.5171	1	0.2789	0.7211	0.4037	12	11.0569	0.0411	0.0426
595.2166	0.7173	BA	A	Correct	0.71	596.2341	0.5171	-1	-0.7325	0.7325	0.4037	12	11.0569	0.0411	0.0426
600.2374	1.1509	FE	E	Correct	1.148	601.6886	0.5171	1	0.3652	0.6348	0.5316	56	11.0569	0.0411	0.0426
603.2732	0.9674	AB	A	Correct	0.953	604.5409	0.5171	1	0.2987	0.7013	0.4037	12	11.0569	0.0411	0.0426
608.7943	0.6506	EF	F	Incorrect	0.645	609.7451	0.5171	-1	-0.5316	0.5316	0.6498	56	11.0569	0.0411	0.0426
612.3139	0.9841	BA	A	Correct	0.967	613.5982	0.5171	1	0.2864	0.7136	0.4037	12	11.0569	0.0411	0.0426
615.8334	0.7339	FE	E	Correct	0.727	616.8676	0.517	1	0.3502	0.6498	0.5089	56	11.0569	0.0411	0.0426
620.3537	1.1676	CD	C	Correct	1.165	621.8216	0.5171	1	0.2981	0.7019	0.4085	34	11.0569	0.0411	0.0426
623.3895	0.6672	DC	C	Correct	0.663	624.357	0.5171	-1	-0.7141	0.7141	0.4085	34	11.0569	0.0411	0.0426
628.9107	0.8006	AB	A	Correct	0.787	630.0116	0.5171	1	0.2747	0.7253	0.4037	12	11.0569	0.0411	0.0426
631.9298	0.9341	DC	C	Correct	0.918	633.1641	0.5171	-1	-0.6837	0.6837	0.4085	34	11.0569	0.0411	0.0426
635.466	0.8507	EF	E	Correct	0.84	636.6169	0.5171	1	0.3358	0.6642	0.5089	56	11.0569	0.0411	0.0426
639.5026	0.9675	FE	E	Correct	0.951	640.7703	0.5171	-1	-0.678	0.678	0.5089	56	11.0569	0.0411	0.0426
645.0238	0.7506	AB	A	Correct	0.744	646.0746	0.5171	1	0.2634	0.7366	0.4037	12	11.0569	0.0411	0.0426
647.5591	0.7173	AB	A	Correct	0.706	648.5766	0.5171	1	0.2526	0.7474	0.4037	12	11.0569	0.0411	0.0426
