onset	duration	Pair	Choice	Response	RT	Feedback_Onset	Feedback_duration	Balance	RPE	Q_chosen	Q_notchosen	npair	Beta_Q	alpha_gain	alpha_loss
1.548	1.421	FE	F	Incorrect	1.402	3.251	0.502	-1	-0.5	0.5	0.5	56	8.4969	0.0885	5e-04
4.5703	0.6839	FE	F	Incorrect	0.681	5.5519	0.503	1	0.5002	0.4998	0.5	56	8.4969	0.0885	5e-04
9.0907	0.6505	FE	F	Incorrect	0.646	10.0414	0.5171	-1	-0.544	0.544	0.5	56	8.4969	0.0885	5e-04
13.611	1.6514	DC	D	Incorrect	1.646	15.5626	0.5171	-1	-0.5	0.5	0.5	34	8.4969	0.0885	5e-04
16.6301	1.2177	FE	F	Incorrect	1.214	18.148	0.5171	-1	-0.5438	0.5438	0.5	56	8.4969	0.0885	5e-04
21.1505	1.5179	DC	C	Correct	1.51	22.9686	0.5171	1	0.5	0.5	0.4998	34	8.4969	0.0885	5e-04
25.6708	1.6847	CD	C	Correct	1.681	27.6558	0.517	-1	-0.5443	0.5443	0.4998	34	8.4969	0.0885	5e-04
28.6899	2.1518	BA	B	Incorrect	2.143	31.1419	0.5171	-1	-0.5	0.5	0.5	12	8.4969	0.0885	5e-04
37.2135	1.7348	AB	B	Incorrect	1.727	39.2485	0.5171	-1	-0.4998	0.4998	0.5	12	8.4969	0.0885	5e-04
44.2526	1.7848	AB	A	Correct	1.772	46.3376	0.5171	-1	-0.5	0.5	0.4995	12	8.4969	0.0885	5e-04
49.7737	1.2177	FE	E	Correct	1.199	51.2916	0.5171	-1	-0.5	0.5	0.5436	56	8.4969	0.0885	5e-04
57.3132	1.5846	AB	B	Incorrect	1.578	59.198	0.5171	-1	-0.4995	0.4995	0.4998	12	8.4969	0.0885	5e-04
60.8327	1.6513	DC	D	Incorrect	1.638	62.7843	0.5171	-1	-0.4998	0.4998	0.544	34	8.4969	0.0885	5e-04
65.353	2.4854	BA	A	Correct	2.475	68.1386	0.2336	1	0.5002	0.4998	0.4993	12	8.4969	0.0885	5e-04
72.8758	1.6013	AB	A	Correct	1.599	74.7774	0.517	1	0.456	0.544	0.4993	12	8.4969	0.0885	5e-04
77.8799	2.1684	CD	C	Correct	2.154	80.3485	0.0501	1	0.456	0.544	0.4995	34	8.4969	0.0885	5e-04
80.4153	2.919	DC	D	Incorrect	2.912	83.6345	0.5171	-1	-0.4995	0.4995	0.5844	34	8.4969	0.0885	5e-04
84.4519	2.2018	BA	A	Correct	2.189	86.9539	0.5171	1	0.4156	0.5844	0.4993	12	8.4969	0.0885	5e-04
88.4885	1.8015	EF	E	Correct	1.787	90.5902	0.5171	1	0.5002	0.4998	0.5436	56	8.4969	0.0885	5e-04
94.0096	2.5021	DC	n/a	omission	0	96.8119	0.5171	0	0	0	0	0	8.4969	0.0885	5e-04
99.5141	1.1676	DC	D	Incorrect	1.16	100.982	0.5171	1	0.5007	0.4993	0.5844	34	8.4969	0.0885	5e-04
104.0344	1.3678	CD	C	Correct	1.352	105.7025	0.5171	-1	-0.5844	0.5844	0.5436	34	8.4969	0.0885	5e-04
107.0702	1.5847	DC	C	Correct	1.571	108.9551	0.5171	1	0.4159	0.5841	0.5436	34	8.4969	0.0885	5e-04
111.5906	0.9341	DC	C	Correct	0.918	112.8249	0.5171	-1	-0.6209	0.6209	0.5436	34	8.4969	0.0885	5e-04
116.1109	1.2677	DC	C	Correct	1.253	117.6789	0.517	1	0.3794	0.6206	0.5436	34	8.4969	0.0885	5e-04
119.1467	1.7514	CD	C	Correct	1.734	121.1984	0.5171	1	0.3458	0.6542	0.5436	34	8.4969	0.0885	5e-04
123.1833	1.3511	DC	C	Correct	1.348	124.8347	0.5171	-1	-0.6848	0.6848	0.5436	34	8.4969	0.0885	5e-04
127.7037	1.7681	AB	A	Correct	1.761	129.772	0.5171	1	0.3788	0.6212	0.4993	12	8.4969	0.0885	5e-04
131.2399	1.618	DC	C	Correct	1.607	133.1581	0.5171	1	0.3155	0.6845	0.5436	34	8.4969	0.0885	5e-04
136.2606	1.3678	FE	E	Correct	1.359	137.9286	0.5171	-1	-0.544	0.544	0.5436	56	8.4969	0.0885	5e-04
140.781	1.6346	BA	B	Incorrect	1.625	142.7159	0.517	-1	-0.4993	0.4993	0.6547	12	8.4969	0.0885	5e-04
144.8009	1.7514	CD	C	Correct	1.744	146.8526	0.467	-1	-0.7124	0.7124	0.5436	34	8.4969	0.0885	5e-04
147.3363	1.5679	FE	F	Incorrect	1.563	149.2045	0.5171	-1	-0.5436	0.5436	0.5438	56	8.4969	0.0885	5e-04
152.357	1.5513	EF	E	Correct	1.547	154.2085	0.5171	-1	-0.5438	0.5438	0.5433	56	8.4969	0.0885	5e-04
155.8766	1.4011	EF	E	Correct	1.384	157.5779	0.5171	1	0.4564	0.5436	0.5433	56	8.4969	0.0885	5e-04
160.8973	1.8348	DC	C	Correct	1.821	163.0324	0.3836	-1	-0.7121	0.7121	0.5436	34	8.4969	0.0885	5e-04
163.9164	2.2185	BA	B	Incorrect	2.211	166.4351	0.5171	-1	-0.4991	0.4991	0.6547	12	8.4969	0.0885	5e-04
167.9363	1.8349	CD	C	Correct	1.818	170.0714	0.5171	1	0.2882	0.7118	0.5436	34	8.4969	0.0885	5e-04
172.4567	1.3844	DC	C	Correct	1.369	174.1414	0.5171	1	0.2627	0.7373	0.5436	34	8.4969	0.0885	5e-04
180.4799	1.8014	EF	E	Correct	1.796	182.5816	0.5171	1	0.416	0.584	0.5433	56	8.4969	0.0885	5e-04
185.0002	1.6513	AB	B	Incorrect	1.641	186.9518	0.5171	1	0.5011	0.4989	0.6547	12	8.4969	0.0885	5e-04
188.0193	1.4012	BA	B	Incorrect	1.383	189.7207	0.5171	-1	-0.5432	0.5432	0.6547	12	8.4969	0.0885	5e-04
193.0401	1.718	EF	E	Correct	1.7	195.0584	0.5171	-1	-0.6208	0.6208	0.5433	56	8.4969	0.0885	5e-04
196.0759	0.9841	FE	E	Correct	0.965	197.3436	0.517	1	0.3795	0.6205	0.5433	56	8.4969	0.0885	5e-04
200.6129	1.4678	CD	D	Incorrect	1.454	202.381	0.5171	1	0.4564	0.5436	0.7605	34	8.4969	0.0885	5e-04
204.1324	1.6513	CD	C	Correct	1.636	206.084	0.5171	-1	-0.7605	0.7605	0.584	34	8.4969	0.0885	5e-04
207.6686	2.0684	AB	B	Incorrect	2.053	210.0372	0.5171	-1	-0.543	0.543	0.6547	12	8.4969	0.0885	5e-04
212.6894	1.1008	EF	E	Correct	1.096	214.0905	0.5171	1	0.3459	0.6541	0.5433	56	8.4969	0.0885	5e-04
216.2089	1.4011	DC	C	Correct	1.39	217.9103	0.517	-1	-0.7602	0.7602	0.584	34	8.4969	0.0885	5e-04
219.7451	1.2844	AB	A	Correct	1.275	221.3297	0.5171	-1	-0.6547	0.6547	0.5427	12	8.4969	0.0885	5e-04
224.2654	1.2177	FE	E	Correct	1.214	225.7833	0.5171	-1	-0.6847	0.6847	0.5433	56	8.4969	0.0885	5e-04
229.2862	1.2843	EF	E	Correct	1.278	230.8708	0.5171	1	0.3156	0.6844	0.5433	56	8.4969	0.0885	5e-04
232.3053	1.5179	DC	C	Correct	1.508	234.1234	0.5171	-1	-0.7599	0.7599	0.584	34	8.4969	0.0885	5e-04
236.8256	1.8015	CD	D	Incorrect	1.788	238.9273	0.5171	1	0.416	0.584	0.7595	34	8.4969	0.0885	5e-04
240.8456	1.4845	AB	A	Correct	1.474	242.6303	0.5171	1	0.3456	0.6544	0.5427	12	8.4969	0.0885	5e-04
244.8655	1.6847	DC	C	Correct	1.683	246.8504	0.5171	1	0.2405	0.7595	0.6208	34	8.4969	0.0885	5e-04
248.8687	1.1676	EF	E	Correct	1.158	250.3366	0.5171	1	0.2877	0.7123	0.5433	56	8.4969	0.0885	5e-04
252.8887	1.8515	AB	A	Correct	1.833	255.0404	0.5171	1	0.315	0.685	0.5427	12	8.4969	0.0885	5e-04
256.4249	1.4678	EF	E	Correct	1.462	258.193	0.5171	1	0.2622	0.7378	0.5433	56	8.4969	0.0885	5e-04
259.9611	1.8181	BA	A	Correct	1.809	262.0795	0.517	1	0.2871	0.7129	0.5427	12	8.4969	0.0885	5e-04
264.4814	1.3344	EF	E	Correct	1.329	266.1161	0.5171	1	0.239	0.761	0.5433	56	8.4969	0.0885	5e-04
268.5013	1.1343	AB	A	Correct	1.118	269.9358	0.5171	1	0.2617	0.7383	0.5427	12	8.4969	0.0885	5e-04
272.5213	2.2351	BA	B	Incorrect	2.23	275.0567	0.517	-1	-0.5427	0.5427	0.7615	12	8.4969	0.0885	5e-04
276.5412	1.3011	AB	A	Correct	1.289	278.1425	0.5171	1	0.2385	0.7615	0.5425	12	8.4969	0.0885	5e-04
281.5619	0.9675	FE	E	Correct	0.951	282.8296	0.5171	-1	-0.7822	0.7822	0.5433	56	8.4969	0.0885	5e-04
285.0815	1.3678	BA	A	Correct	1.366	286.7495	0.5171	-1	-0.7826	0.7826	0.5425	12	8.4969	0.0885	5e-04
289.0847	1.0509	EF	E	Correct	1.036	290.4358	0.5171	1	0.2182	0.7818	0.5433	56	8.4969	0.0885	5e-04
292.1205	1.6514	DC	D	Incorrect	1.646	294.0721	0.5171	1	0.3792	0.6208	0.7808	34	8.4969	0.0885	5e-04
296.6409	1.1509	BA	A	Correct	1.149	298.092	0.5171	1	0.2178	0.7822	0.5425	12	8.4969	0.0885	5e-04
304.1803	2.1851	AB	A	Correct	2.18	306.6657	0.5171	1	0.1985	0.8015	0.5425	12	8.4969	0.0885	5e-04
308.2169	1.668	AB	A	Correct	1.664	310.1852	0.5171	-1	-0.8191	0.8191	0.5425	12	8.4969	0.0885	5e-04
312.2535	1.2344	CD	D	Incorrect	1.224	313.7881	0.5171	-1	-0.6544	0.6544	0.7808	34	8.4969	0.0885	5e-04
317.2743	1.201	BA	A	Correct	1.187	318.7755	0.5171	1	0.1813	0.8187	0.5425	12	8.4969	0.0885	5e-04
325.7979	1.6013	EF	E	Correct	1.587	327.6994	0.5171	1	0.1989	0.8011	0.5433	56	8.4969	0.0885	5e-04
328.3333	1.1175	EF	E	Correct	1.103	329.7511	0.5171	-1	-0.8187	0.8187	0.5433	56	8.4969	0.0885	5e-04
333.354	1.3845	FE	E	Correct	1.371	335.0387	0.5171	1	0.1817	0.8183	0.5433	56	8.4969	0.0885	5e-04
336.3898	1.6347	BA	A	Correct	1.621	338.3247	0.5171	1	0.1653	0.8347	0.5425	12	8.4969	0.0885	5e-04
341.4105	1.7014	BA	A	Correct	1.695	343.4122	0.5171	-1	-0.8494	0.8494	0.5425	12	8.4969	0.0885	5e-04
345.4305	0.9841	EF	E	Correct	0.971	346.7149	0.517	1	0.1656	0.8344	0.5433	56	8.4969	0.0885	5e-04
349.4504	2.2018	AB	A	Correct	2.191	351.9524	0.5171	1	0.151	0.849	0.5425	12	8.4969	0.0885	5e-04
353.9707	2.0684	BA	A	Correct	2.05	356.3393	0.1668	1	0.1376	0.8624	0.5425	12	8.4969	0.0885	5e-04
360.5261	1.0675	BA	A	Correct	1.065	361.8938	0.5171	-1	-0.8745	0.8745	0.5425	12	8.4969	0.0885	5e-04
365.0464	1.0175	EF	E	Correct	1	366.3641	0.5171	1	0.1509	0.8491	0.5433	56	8.4969	0.0885	5e-04
372.5859	1.3844	CD	C	Correct	1.38	374.2706	0.517	1	0.2192	0.7808	0.6541	34	8.4969	0.0885	5e-04
382.1103	1.3844	DC	C	Correct	1.376	383.795	0.517	1	0.1998	0.8002	0.6541	34	8.4969	0.0885	5e-04
385.6298	1.2343	CD	C	Correct	1.226	387.1644	0.5171	1	0.1821	0.8179	0.6541	34	8.4969	0.0885	5e-04
389.6497	1.1176	FE	E	Correct	1.101	391.0675	0.5171	1	0.1376	0.8624	0.5433	56	8.4969	0.0885	5e-04
394.1701	1.251	FE	E	Correct	1.235	395.7213	0.5171	1	0.1254	0.8746	0.5433	56	8.4969	0.0885	5e-04
396.7054	0.8007	FE	E	Correct	0.792	397.8063	0.5171	-1	-0.8857	0.8857	0.5433	56	8.4969	0.0885	5e-04
402.2266	1.0008	FE	E	Correct	0.996	403.5276	0.5171	-1	-0.8853	0.8853	0.5433	56	8.4969	0.0885	5e-04
406.2465	1.4512	AB	A	Correct	1.444	407.9979	0.5171	1	0.1259	0.8741	0.5425	12	8.4969	0.0885	5e-04
409.766	1.1176	FE	E	Correct	1.103	411.1839	0.5171	-1	-0.8849	0.8849	0.5433	56	8.4969	0.0885	5e-04
413.2856	0.9174	EF	E	Correct	0.913	414.5032	0.5171	-1	-0.8845	0.8845	0.5433	56	8.4969	0.0885	5e-04
418.3063	1.6013	EF	E	Correct	1.589	420.2079	0.517	1	0.1159	0.8841	0.5433	56	8.4969	0.0885	5e-04
421.3254	1.201	FE	E	Correct	1.183	422.8267	0.517	1	0.1056	0.8944	0.5433	56	8.4969	0.0885	5e-04
424.8616	1.8182	CD	C	Correct	1.808	426.98	0.5171	1	0.166	0.834	0.6541	34	8.4969	0.0885	5e-04
429.8824	1.4178	DC	C	Correct	1.408	431.6004	0.5171	1	0.1513	0.8487	0.6541	34	8.4969	0.0885	5e-04
432.9182	1.718	DC	C	Correct	1.714	434.9365	0.5171	1	0.1379	0.8621	0.6541	34	8.4969	0.0885	5e-04
436.9548	1.6513	AB	A	Correct	1.636	438.9064	0.5171	1	0.1147	0.8853	0.5425	12	8.4969	0.0885	5e-04
440.9914	1.4679	CD	C	Correct	1.456	442.7595	0.5171	1	0.1257	0.8743	0.6541	34	8.4969	0.0885	5e-04
449.515	1.5012	EF	E	Correct	1.493	451.3165	0.517	-1	-0.9037	0.9037	0.5433	56	8.4969	0.0885	5e-04
453.5349	1.3511	CD	C	Correct	1.343	455.1863	0.517	1	0.1146	0.8854	0.6541	34	8.4969	0.0885	5e-04
462.5589	1.251	AB	A	Correct	1.24	464.1102	0.5171	1	0.1046	0.8954	0.5425	12	8.4969	0.0885	5e-04
466.0784	2.3686	FE	E	Correct	2.364	468.7473	0.3503	1	0.0967	0.9033	0.5433	56	8.4969	0.0885	5e-04
469.1142	2.3019	DC	C	Correct	2.284	471.7163	0.5171	1	0.1044	0.8956	0.6541	34	8.4969	0.0885	5e-04
474.135	2.1517	EF	E	Correct	2.146	476.587	0.5171	1	0.0881	0.9119	0.5433	56	8.4969	0.0885	5e-04
477.6545	1.8515	AB	A	Correct	1.847	479.8063	0.517	1	0.0953	0.9047	0.5425	12	8.4969	0.0885	5e-04
482.6752	1.2344	CD	C	Correct	1.228	484.2098	0.5171	1	0.0952	0.9048	0.6541	34	8.4969	0.0885	5e-04
486.1948	1.3177	EF	E	Correct	1.305	487.8128	0.517	-1	-0.9197	0.9197	0.5433	56	8.4969	0.0885	5e-04
490.7151	1.6847	FE	E	Correct	1.679	492.7001	0.517	1	0.0807	0.9193	0.5433	56	8.4969	0.0885	5e-04
493.2505	1.6013	FE	E	Correct	1.598	495.152	0.5171	-1	-0.9264	0.9264	0.5433	56	8.4969	0.0885	5e-04
498.7717	1.2843	DC	C	Correct	1.282	500.3563	0.5171	-1	-0.9132	0.9132	0.6541	34	8.4969	0.0885	5e-04
502.7916	1.5679	BA	A	Correct	1.55	504.6598	0.5171	1	0.0869	0.9131	0.5425	12	8.4969	0.0885	5e-04
505.8274	1.3678	CD	C	Correct	1.361	507.4954	0.5171	1	0.0872	0.9128	0.6541	34	8.4969	0.0885	5e-04
514.351	1.4011	BA	A	Correct	1.386	516.0523	0.5171	1	0.0792	0.9208	0.5425	12	8.4969	0.0885	5e-04
517.3868	1.7847	EF	E	Correct	1.77	519.4718	0.5171	-1	-0.926	0.926	0.5433	56	8.4969	0.0885	5e-04
525.9104	2.5854	DC	C	Correct	2.576	528.796	0.5171	1	0.0795	0.9205	0.6541	34	8.4969	0.0885	5e-04
529.9303	1.9015	AB	A	Correct	1.893	532.1321	0.5171	1	0.0722	0.9278	0.5425	12	8.4969	0.0885	5e-04
534.4506	1.1676	BA	A	Correct	1.163	535.9185	0.5171	1	0.0658	0.9342	0.5425	12	8.4969	0.0885	5e-04
538.4706	1.4178	AB	B	Incorrect	1.413	540.1886	0.5171	1	0.4575	0.5425	0.94	12	8.4969	0.0885	5e-04
541.9901	1.8515	EF	E	Correct	1.842	544.1418	0.5171	1	0.0744	0.9256	0.5433	56	8.4969	0.0885	5e-04
545.5263	1.2343	FE	E	Correct	1.231	547.0609	0.517	1	0.0678	0.9322	0.5433	56	8.4969	0.0885	5e-04
549.5629	1.201	EF	E	Correct	1.191	551.0641	0.5171	-1	-0.9382	0.9382	0.5433	56	8.4969	0.0885	5e-04
555.084	1.201	CD	C	Correct	1.184	556.5853	0.517	1	0.0724	0.9276	0.6541	34	8.4969	0.0885	5e-04
562.6068	1.2344	BA	A	Correct	1.223	564.1414	0.5171	1	0.06	0.94	0.583	12	8.4969	0.0885	5e-04
566.6267	1.8849	FE	E	Correct	1.874	568.8119	0.517	-1	-0.9377	0.9377	0.5433	56	8.4969	0.0885	5e-04
570.6467	1.2176	CD	C	Correct	1.207	572.1646	0.5171	1	0.066	0.934	0.6541	34	8.4969	0.0885	5e-04
574.1662	2.7356	AB	A	Correct	2.727	577.202	0.4837	1	0.0547	0.9453	0.583	12	8.4969	0.0885	5e-04
578.1861	1.4178	BA	A	Correct	1.415	579.9042	0.5171	1	0.0498	0.9502	0.583	12	8.4969	0.0885	5e-04
582.7065	1.2843	DC	C	Correct	1.269	584.2911	0.5171	1	0.0602	0.9398	0.6541	34	8.4969	0.0885	5e-04
586.226	1.3344	EF	E	Correct	1.332	587.8607	0.517	1	0.0627	0.9373	0.5433	56	8.4969	0.0885	5e-04
589.7622	1.0008	FE	E	Correct	0.988	591.0633	0.517	-1	-0.9429	0.9429	0.5433	56	8.4969	0.0885	5e-04
594.7829	1.6847	AB	A	Correct	1.681	596.7679	0.5171	1	0.0454	0.9546	0.583	12	8.4969	0.0885	5e-04
598.3025	2.2518	AB	A	Correct	2.246	600.8545	0.5171	-1	-0.9586	0.9586	0.583	12	8.4969	0.0885	5e-04
602.8228	2.6355	EF	E	Correct	2.628	605.7585	0.0834	1	0.0576	0.9424	0.5433	56	8.4969	0.0885	5e-04
607.3431	1.0175	EF	E	Correct	1.002	608.6609	0.5171	-1	-0.9475	0.9475	0.5433	56	8.4969	0.0885	5e-04
610.3623	1.5846	AB	A	Correct	1.579	612.2471	0.5171	1	0.0418	0.9582	0.583	12	8.4969	0.0885	5e-04
614.8826	2.4687	BA	A	Correct	2.458	617.6515	0.2502	1	0.0381	0.9619	0.583	12	8.4969	0.0885	5e-04
617.9184	1.9182	FE	E	Correct	1.908	620.1369	0.517	-1	-0.9471	0.9471	0.5433	56	8.4969	0.0885	5e-04
622.4387	2.5688	AB	A	Correct	2.555	625.3077	0.5171	1	0.0347	0.9653	0.583	12	8.4969	0.0885	5e-04
625.9749	1.7515	FE	E	Correct	1.742	628.0266	0.5171	1	0.0533	0.9467	0.5433	56	8.4969	0.0885	5e-04
631.4961	1.718	EF	E	Correct	1.712	633.5144	0.5004	1	0.0486	0.9514	0.5433	56	8.4969	0.0885	5e-04
635.0156	3.0024	CD	n/a	omission	0	638.3183	0.5171	0	0	0	0	0	8.4969	0.0885	5e-04
641.5209	1.2176	AB	B	Incorrect	1.2	643.0388	0.5171	-1	-0.583	0.583	0.9683	12	8.4969	0.0885	5e-04
649.5441	0.9841	FE	E	Correct	0.975	650.8284	0.5171	1	0.0443	0.9557	0.5433	56	8.4969	0.0885	5e-04
654.5648	1.3678	CD	C	Correct	1.35	656.2328	0.5171	1	0.0549	0.9451	0.6541	34	8.4969	0.0885	5e-04
658.0843	2.3519	DC	C	Correct	2.343	660.7365	0.3669	1	0.05	0.95	0.6541	34	8.4969	0.0885	5e-04
662.1043	1.5512	EF	E	Correct	1.536	663.9558	0.5171	1	0.0404	0.9596	0.5433	56	8.4969	0.0885	5e-04
674.1474	1.4178	EF	E	Correct	1.407	675.8654	0.5171	1	0.0368	0.9632	0.5433	56	8.4969	0.0885	5e-04
