onset	duration	Pair	Response	RT	Cond	Q_choice	Q_notchosen	eQdiff	Rv_diff	Beta_Q	alpha_gain	alpha_loss
0.0499	1.8332	Ce	Correct	1.833	ww	0.9681	0.8446	0.1235	10	5.5551	0.0457	0
4.5499	0.9876	bF	Correct	0.98	ll	0.8208	0.622	0.1988	20	5.5551	0.0457	0
8.0899	0.8673	Ce	Correct	0.854	ww	0.9681	0.8446	0.1235	10	5.5551	0.0457	0
12.1259	0.8006	bC	Correct	0.791	wl.u	0.9681	0.622	0.3461	50	5.5551	0.0457	0
16.6469	0.784	Ac	inCorrect	0.766	ww	0.9681	0.9723	-0.0042	10	5.5551	0.0457	0
21.1669	1.0842	bE	Correct	1.07	wl.u	0.8446	0.622	0.2226	40	5.5551	0.0457	0
28.2059	1.0842	Ce	inCorrect	1.066	ww	0.8446	0.9681	-0.1235	10	5.5551	0.0457	0
32.2429	1.1843	Ae	Correct	1.179	ww	0.9723	0.8446	0.1277	20	5.5551	0.0457	0
36.2789	1.4011	eA	inCorrect	1.386	ww	0.8446	0.9723	-0.1277	20	5.5551	0.0457	0
41.2999	1.301	Ae	Correct	1.288	ww	0.9723	0.8446	0.1277	20	5.5551	0.0457	0
44.3359	1.0175	cA	inCorrect	1	ww	0.9681	0.9723	-0.0042	10	5.5551	0.0457	0
48.8559	1.0675	dC	Correct	1.065	wl.l	0.9681	0.5851	0.383	40	5.5551	0.0457	0
52.3919	0.8674	eC	inCorrect	0.851	ww	0.8446	0.9681	-0.1235	10	5.5551	0.0457	0
56.4289	1.5512	dA	Correct	1.536	wl.u	0.9723	0.5851	0.3872	50	5.5551	0.0457	0
61.4499	1.3511	Cd	inCorrect	1.343	wl.l	0.5851	0.9681	-0.383	40	5.5551	0.0457	0
64.9689	0.9341	Ed	Correct	0.923	wl.u	0.8446	0.5851	0.2595	30	5.5551	0.0457	0
68.5059	1.3677	dF	Correct	1.353	ll	0.8208	0.5851	0.2357	10	5.5551	0.0457	0
72.5419	1.1342	Ae	Correct	1.122	ww	0.9723	0.8446	0.1277	20	5.5551	0.0457	0
77.0619	1.5847	Af	Correct	1.578	wl.u	0.9723	0.8208	0.1515	40	5.5551	0.0457	0
80.5989	1.6514	eA	inCorrect	1.643	ww	0.8446	0.9723	-0.1277	20	5.5551	0.0457	0
85.1189	1.1676	cA	inCorrect	1.163	ww	0.9681	0.9723	-0.0042	10	5.5551	0.0457	0
89.1389	1.0676	Ef	inCorrect	1.051	wl.l	0.8208	0.8446	-0.0238	20	5.5551	0.0457	0
93.6589	1.301	eC	inCorrect	1.284	ww	0.8446	0.9681	-0.1235	10	5.5551	0.0457	0
97.1789	0.9174	fC	inCorrect	0.912	wl.u	0.8208	0.9681	-0.1473	30	5.5551	0.0457	0
100.7149	1.201	cA	inCorrect	1.196	ww	0.9681	0.9723	-0.0042	10	5.5551	0.0457	0
104.7519	1.0675	bC	Correct	1.056	wl.u	0.9681	0.622	0.3461	50	5.5551	0.0457	0
108.7879	0.784	bD	Correct	0.766	ll	0.5851	0.622	-0.0369	10	5.5551	0.0457	0
113.3089	1.4679	Ce	Correct	1.458	ww	0.9681	0.8446	0.1235	10	5.5551	0.0457	0
117.3289	1.1676	dC	Correct	1.162	wl.l	0.9681	0.5851	0.383	40	5.5551	0.0457	0
121.3489	1.6013	bC	Correct	1.596	wl.u	0.9681	0.622	0.3461	50	5.5551	0.0457	0
125.8689	0.8006	bA	Correct	0.795	wl.l	0.9723	0.622	0.3503	60	5.5551	0.0457	0
128.9049	2.6188	Af	Correct	2.607	wl.u	0.9723	0.8208	0.1515	40	5.5551	0.0457	0
132.9409	1.5846	bA	Correct	1.574	wl.l	0.9723	0.622	0.3503	60	5.5551	0.0457	0
137.4619	1.2844	Ab	Correct	1.274	wl.l	0.9723	0.622	0.3503	60	5.5551	0.0457	0
145.9849	1.1342	bA	Correct	1.132	wl.l	0.9723	0.622	0.3503	60	5.5551	0.0457	0
149.5049	1.0842	dA	Correct	1.07	wl.u	0.9723	0.5851	0.3872	50	5.5551	0.0457	0
153.0409	0.834	bE	Correct	0.821	wl.u	0.8446	0.622	0.2226	40	5.5551	0.0457	0
158.0619	1.6013	fE	Correct	1.592	wl.l	0.8446	0.8208	0.0238	20	5.5551	0.0457	0
161.0979	0.7673	Db	Correct	0.752	ll	0.5851	0.622	-0.0369	10	5.5551	0.0457	0
166.1179	1.1009	cA	inCorrect	1.089	ww	0.9681	0.9723	-0.0042	10	5.5551	0.0457	0
169.6379	0.9174	bD	Correct	0.908	ll	0.5851	0.622	-0.0369	10	5.5551	0.0457	0
173.6579	0.834	Cb	Correct	0.817	wl.u	0.9681	0.622	0.3461	50	5.5551	0.0457	0
177.1939	0.6005	Eb	Correct	0.586	wl.u	0.8446	0.622	0.2226	40	5.5551	0.0457	0
182.2149	0.7839	Cb	Correct	0.78	wl.u	0.9681	0.622	0.3461	50	5.5551	0.0457	0
185.7339	1.4679	Ac	Correct	1.453	ww	0.9723	0.9681	0.0042	10	5.5551	0.0457	0
189.2709	1.3011	bC	Correct	1.286	wl.u	0.9681	0.622	0.3461	50	5.5551	0.0457	0
194.2909	1.9015	Ce	inCorrect	1.893	ww	0.8446	0.9681	-0.1235	10	5.5551	0.0457	0
197.3269	0.9007	bA	Correct	0.892	wl.l	0.9723	0.622	0.3503	60	5.5551	0.0457	0
202.3479	0.6506	Ac	inCorrect	0.641	ww	0.9681	0.9723	-0.0042	10	5.5551	0.0457	0
205.8669	0.6839	fE	Correct	0.668	wl.l	0.8446	0.8208	0.0238	20	5.5551	0.0457	0
210.3879	0.8841	Cb	Correct	0.87	wl.u	0.9681	0.622	0.3461	50	5.5551	0.0457	0
213.4239	1.3178	Ad	Correct	1.302	wl.u	0.9723	0.5851	0.3872	50	5.5551	0.0457	0
217.4599	1.0508	eA	inCorrect	1.041	ww	0.8446	0.9723	-0.1277	20	5.5551	0.0457	0
221.4969	0.9508	bA	Correct	0.944	wl.l	0.9723	0.622	0.3503	60	5.5551	0.0457	0
226.0169	0.6339	bD	Correct	0.619	ll	0.5851	0.622	-0.0369	10	5.5551	0.0457	0
230.5379	1.0675	fA	Correct	1.051	wl.u	0.9723	0.8208	0.1515	40	5.5551	0.0457	0
234.5569	1.1009	bE	Correct	1.097	wl.u	0.8446	0.622	0.2226	40	5.5551	0.0457	0
238.0769	0.9507	bC	Correct	0.945	wl.u	0.9681	0.622	0.3461	50	5.5551	0.0457	0
241.6129	1.0341	Cb	Correct	1.019	wl.u	0.9681	0.622	0.3461	50	5.5551	0.0457	0
245.6499	1.0842	bE	Correct	1.069	wl.u	0.8446	0.622	0.2226	40	5.5551	0.0457	0
253.6899	0.8507	Cb	Correct	0.844	wl.u	0.9681	0.622	0.3461	50	5.5551	0.0457	0
258.2099	1.2177	dC	Correct	1.202	wl.l	0.9681	0.5851	0.383	40	5.5551	0.0457	0
262.2299	0.834	eA	inCorrect	0.826	ww	0.8446	0.9723	-0.1277	20	5.5551	0.0457	0
265.7659	0.834	Eb	Correct	0.824	wl.u	0.8446	0.622	0.2226	40	5.5551	0.0457	0
274.2899	0.8507	dA	inCorrect	0.832	wl.u	0.5851	0.9723	-0.3872	50	5.5551	0.0457	0
278.8099	1.3678	fA	inCorrect	1.363	wl.u	0.8208	0.9723	-0.1515	40	5.5551	0.0457	0
281.8459	0.9842	Db	inCorrect	0.975	ll	0.622	0.5851	0.0369	10	5.5551	0.0457	0
286.3659	1.1343	dF	Correct	1.118	ll	0.8208	0.5851	0.2357	10	5.5551	0.0457	0
290.3859	1.4345	Ef	inCorrect	1.428	wl.l	0.8208	0.8446	-0.0238	20	5.5551	0.0457	0
294.4059	0.884	Eb	Correct	0.879	wl.u	0.8446	0.622	0.2226	40	5.5551	0.0457	0
297.9419	1.0008	Db	inCorrect	0.983	ll	0.622	0.5851	0.0369	10	5.5551	0.0457	0
301.9789	3.0525	bF	Correct	3.048	ll	0.8208	0.622	0.1988	20	5.5551	0.0457	0
306.4989	3.5028	dC	omission	0	wl.l	0.5851	0.9681	-0.383	40	5.5551	0.0457	0
312.0209	1.4345	dE	Correct	1.418	wl.u	0.8446	0.5851	0.2595	30	5.5551	0.0457	0
317.0409	1.1176	Ef	Correct	1.113	wl.l	0.8446	0.8208	0.0238	20	5.5551	0.0457	0
320.0769	0.9508	bF	Correct	0.942	ll	0.8208	0.622	0.1988	20	5.5551	0.0457	0
324.5969	0.784	Ad	Correct	0.78	wl.u	0.9723	0.5851	0.3872	50	5.5551	0.0457	0
329.1179	1.2343	cA	inCorrect	1.231	ww	0.9681	0.9723	-0.0042	10	5.5551	0.0457	0
332.1539	0.9174	Ae	inCorrect	0.912	ww	0.8446	0.9723	-0.1277	20	5.5551	0.0457	0
336.6739	0.6838	eA	inCorrect	0.681	ww	0.8446	0.9723	-0.1277	20	5.5551	0.0457	0
340.6939	0.7172	Ac	Correct	0.705	ww	0.9723	0.9681	0.0042	10	5.5551	0.0457	0
344.7139	0.8674	Ad	Correct	0.865	wl.u	0.9723	0.5851	0.3872	50	5.5551	0.0457	0
352.2529	0.6839	Cd	inCorrect	0.681	wl.l	0.5851	0.9681	-0.383	40	5.5551	0.0457	0
356.7739	0.9007	dE	Correct	0.895	wl.u	0.8446	0.5851	0.2595	30	5.5551	0.0457	0
360.3099	0.834	Ad	Correct	0.824	wl.u	0.9723	0.5851	0.3872	50	5.5551	0.0457	0
364.8299	1.1343	dA	Correct	1.116	wl.u	0.9723	0.5851	0.3872	50	5.5551	0.0457	0
368.3829	0.8507	Cf	Correct	0.843	wl.u	0.9681	0.8208	0.1473	30	5.5551	0.0457	0
372.9039	0.8006	Ed	Correct	0.787	wl.u	0.8446	0.5851	0.2595	30	5.5551	0.0457	0
376.9229	1.5346	fC	Correct	1.529	wl.u	0.9681	0.8208	0.1473	30	5.5551	0.0457	0
380.4599	1.6013	Ef	Correct	1.591	wl.l	0.8446	0.8208	0.0238	20	5.5551	0.0457	0
385.4799	1.5346	dA	inCorrect	1.523	wl.u	0.5851	0.9723	-0.3872	50	5.5551	0.0457	0
388.5159	1.5346	Fb	Correct	1.529	ll	0.8208	0.622	0.1988	20	5.5551	0.0457	0
392.5529	1.5513	Cf	inCorrect	1.534	wl.u	0.8208	0.9681	-0.1473	30	5.5551	0.0457	0
396.5889	0.8674	eC	inCorrect	0.853	ww	0.8446	0.9681	-0.1235	10	5.5551	0.0457	0
400.6259	0.8507	fE	Correct	0.847	wl.l	0.8446	0.8208	0.0238	20	5.5551	0.0457	0
404.6629	0.7673	Fb	Correct	0.753	ll	0.8208	0.622	0.1988	20	5.5551	0.0457	0
409.6829	1.0175	Db	Correct	1.005	ll	0.5851	0.622	-0.0369	10	5.5551	0.0457	0
413.7029	0.9841	Ed	Correct	0.976	wl.u	0.8446	0.5851	0.2595	30	5.5551	0.0457	0
417.2229	1.151	cA	inCorrect	1.145	ww	0.9681	0.9723	-0.0042	10	5.5551	0.0457	0
421.2429	1.0675	Ac	Correct	1.053	ww	0.9723	0.9681	0.0042	10	5.5551	0.0457	0
425.7629	0.9341	Cd	Correct	0.926	wl.l	0.9681	0.5851	0.383	40	5.5551	0.0457	0
429.2829	0.9508	Ab	Correct	0.945	wl.l	0.9723	0.622	0.3503	60	5.5551	0.0457	0
436.8219	1.0676	bA	Correct	1.055	wl.l	0.9723	0.622	0.3503	60	5.5551	0.0457	0
441.8429	1.0675	Ab	Correct	1.059	wl.l	0.9723	0.622	0.3503	60	5.5551	0.0457	0
445.3629	1.2177	fE	inCorrect	1.211	wl.l	0.8208	0.8446	-0.0238	20	5.5551	0.0457	0
449.3829	0.6338	Eb	Correct	0.623	wl.u	0.8446	0.622	0.2226	40	5.5551	0.0457	0
453.9029	0.8007	Ae	Correct	0.796	ww	0.9723	0.8446	0.1277	20	5.5551	0.0457	0
457.4219	0.8174	fE	inCorrect	0.808	wl.l	0.8208	0.8446	-0.0238	20	5.5551	0.0457	0
461.4419	0.8507	bD	Correct	0.834	ll	0.5851	0.622	-0.0369	10	5.5551	0.0457	0
465.4619	0.6839	Cf	Correct	0.669	wl.u	0.9681	0.8208	0.1473	30	5.5551	0.0457	0
468.9979	0.9508	eC	Correct	0.939	ww	0.9681	0.8446	0.1235	10	5.5551	0.0457	0
474.0189	0.7673	Fb	Correct	0.753	ll	0.8208	0.622	0.1988	20	5.5551	0.0457	0
481.0579	0.7172	bC	Correct	0.702	wl.u	0.9681	0.622	0.3461	50	5.5551	0.0457	0
485.0949	1.4678	bE	Correct	1.454	wl.u	0.8446	0.622	0.2226	40	5.5551	0.0457	0
489.1319	1.0675	Fb	Correct	1.05	ll	0.8208	0.622	0.1988	20	5.5551	0.0457	0
493.1679	1.1009	Ad	Correct	1.098	wl.u	0.9723	0.5851	0.3872	50	5.5551	0.0457	0
498.1889	1.2176	dF	Correct	1.205	ll	0.8208	0.5851	0.2357	10	5.5551	0.0457	0
501.2249	1.3845	dC	Correct	1.369	wl.l	0.9681	0.5851	0.383	40	5.5551	0.0457	0
509.7479	0.7506	Fd	inCorrect	0.733	ll	0.5851	0.8208	-0.2357	10	5.5551	0.0457	0
514.2689	1.1342	cA	inCorrect	1.121	ww	0.9681	0.9723	-0.0042	10	5.5551	0.0457	0
