onset	duration	RT	Trial_type	Response	SSD
0.0333	0.5171	809	Go	correct	n/a
5.0207	0.5171	1050	Go	correct	n/a
8.5235	0.5171	902	Go	correct	n/a
13.0271	0.5171	863	Go	correct	n/a
17.0303	0.5171	0	Stop	succesful_stop	200
20.5331	0.5171	585	Go	correct	n/a
24.5364	0.517	917	Go	correct	n/a
28.0559	0.517	0	Stop	succesful_stop	250
36.0623	0.5171	0	Stop	succesful_stop	300
40.0655	0.5171	927	Go	correct	n/a
45.0528	0.5171	809	Go	correct	n/a
49.5565	0.517	0	Stop	succesful_stop	350
53.0593	0.5171	0	Stop	succesful_stop	400
56.0784	0.517	648	Go	correct	n/a
65.0689	0.5171	0	Stop	succesful_stop	450
69.5725	0.5171	626	Stop	Failed_stop	500
73.5757	0.5171	660	Go	correct	n/a
81.5822	0.5171	0	Stop	succesful_stop	550
88.1041	0.5171	726	Stop	Failed_stop	600
93.0914	0.5171	819	Go	correct	n/a
96.1105	0.5171	911	Go	correct	n/a
105.1011	0.5171	0	Stop	succesful_stop	650
108.1202	0.517	0	Stop	succesful_stop	700
113.6079	0.5171	936	Go	correct	n/a
117.6111	0.5171	1103	Go	correct	n/a
121.1139	0.5171	777	Stop	Failed_stop	750
124.6167	0.5171	1057	Go	correct	n/a
129.1204	0.517	1114	Go	correct	n/a
132.6232	0.5171	1295	Go	correct	n/a
136.1427	0.517	965	Go	correct	n/a
141.13	0.5171	878	Go	correct	n/a
144.1491	0.5171	1011	Go	correct	n/a
149.6368	0.5171	975	Go	correct	n/a
153.1397	0.517	0	Stop	succesful_stop	800
156.6425	0.517	997	Stop	Failed_stop	850
161.6465	0.5171	0	Stop	succesful_stop	900
164.6489	0.5171	1031	Stop	Failed_stop	950
168.1684	0.5171	1231	Go	correct	n/a
173.1557	0.5171	1085	Go	correct	n/a
176.1748	0.5171	1224	Go	correct	n/a
180.178	0.5171	1260	Go	correct	n/a
185.1654	0.5171	792	Go	correct	n/a
188.1845	0.517	981	Go	correct	n/a
193.1718	0.5171	1027	Go	correct	n/a
197.6754	0.5171	1142	Go	correct	n/a
201.6786	0.5171	1008	Go	correct	n/a
205.1815	0.517	1101	Stop	Failed_stop	1000
209.1847	0.517	1185	Go	correct	n/a
212.2038	0.517	1256	Go	correct	n/a
216.207	0.5171	934	Stop	Failed_stop	1050
224.6971	0.5171	1220	Go	correct	n/a
229.7011	0.5171	1173	Go	correct	n/a
233.7044	0.517	1260	Stop	Failed_stop	1100
236.223	0.5171	1215	Stop	Failed_stop	1150
241.2104	0.5171	1151	Stop	Failed_stop	1200
245.2136	0.5171	1385	Go	correct	n/a
248.2327	0.5171	1671	Go	correct	n/a
253.22	0.5171	0	Stop	succesful_stop	1250
260.7261	0.517	1254	Go	correct	n/a
264.7293	0.5171	1143	Go	correct	n/a
269.2329	0.5171	1441	Stop	Failed_stop	1300
273.2361	0.5171	0	Stop	succesful_stop	1350
276.2552	0.5171	1425	Go	correct	n/a
281.7429	0.5171	0	Stop	succesful_stop	1400
284.2616	0.5171	1446	Stop	Failed_stop	1450
293.2522	0.5171	1688	Stop	Failed_stop	1500
297.7558	0.5171	1738	Go	correct	n/a
301.759	0.5171	1511	Stop	Failed_stop	1550
304.7614	0.5171	1541	Go	correct	n/a
309.265	0.5171	1019	Stop	Failed_stop	1600
313.7687	0.517	981	Go	correct	n/a
316.7711	0.5171	885	Go	correct	n/a
321.7751	0.5171	608	Stop	Failed_stop	1600
324.7775	0.5171	1946	Go	correct	n/a
329.7815	0.5171	1986	Go	correct	n/a
332.7839	0.5171	0	Stop	succesful_stop	1550
337.788	0.517	1854	Go	correct	n/a
341.7912	0.5171	1837	Go	correct	n/a
349.2972	0.5171	2103	Go	correct	n/a
353.8008	0.5171	1651	Go	correct	n/a
357.804	0.5171	1873	Go	correct	n/a
361.8072	0.5171	2494	Go	correct	n/a
364.8097	0.517	2309	Go	correct	n/a
368.8129	0.5171	2114	Go	correct	n/a
372.8161	0.5171	0	Stop	succesful_stop	1550
377.3197	0.5171	1620	Go	correct	n/a
380.3388	0.5171	1777	Stop	Failed_stop	1600
384.8257	0.5171	1994	Stop	Failed_stop	1600
389.3294	0.517	2771	Go	correct	n/a
393.3326	0.517	1949	Go	correct	n/a
397.3358	0.5171	2026	Go	correct	n/a
401.339	0.5171	2340	Go	correct	n/a
404.8418	0.5171	2534	Go	correct	n/a
409.3454	0.5171	2273	Go	correct	n/a
413.3486	0.5171	0	Stop	succesful_stop	1550
417.8523	0.517	2365	Go	correct	n/a
421.8555	0.5171	2333	Go	correct	n/a
424.8579	0.5171	2034	Go	correct	n/a
429.3615	0.5171	2306	Go	correct	n/a
433.3647	0.5171	2542	Go	correct	n/a
437.3679	0.5171	2486	Go	correct	n/a
440.387	0.5171	2208	Go	correct	n/a
444.874	0.517	0	Stop	succesful_stop	1550
449.878	0.5171	1839	Go	correct	n/a
453.8812	0.5171	0	Stop	succesful_stop	1600
456.8836	0.5171	0	Stop	succesful_stop	1650
461.8876	0.5171	2067	Go	correct	n/a
468.4095	0.5171	2913	Go	correct	n/a
472.4127	0.5171	2290	Go	correct	n/a
477.9005	0.5171	2033	Go	correct	n/a
480.9029	0.5171	2069	Go	correct	n/a
484.9061	0.5171	2752	Go	correct	n/a
488.9093	0.5171	2747	Go	correct	n/a
493.9133	0.5171	0	Go	omission	n/a
498.4336	0.5171	1701	Go	correct	n/a
502.9206	0.5171	1940	Go	correct	n/a
507.4242	0.5171	2230	Go	correct	n/a
510.927	0.5171	2176	Go	Incorrect	n/a
515.931	0.5171	0	Stop	succesful_stop	1700
518.9334	0.5171	1034	Go	correct	n/a
523.4371	0.517	1934	Go	correct	n/a
527.9407	0.5171	1979	Go	correct	n/a
531.4435	0.5171	2491	Go	correct	n/a
539.4499	0.5171	1953	Stop	Failed_stop	1750
546.9559	0.5171	2152	Go	correct	n/a
550.9592	0.517	1932	Go	correct	n/a
555.9632	0.5171	2150	Go	correct	n/a
559.9664	0.5171	1995	Go	correct	n/a
567.9728	0.5171	2295	Go	correct	n/a
570.9752	0.5171	1906	Go	correct	n/a
574.9784	0.5171	0	Stop	succesful_stop	1800
579.9825	0.5171	0	Stop	succesful_stop	1850
582.9849	0.5171	1776	Go	correct	n/a
586.9881	0.5171	2334	Go	correct	n/a
591.4917	0.5171	0	Stop	succesful_stop	1900
594.9945	0.5171	3008	Go	correct	n/a
598.9977	0.5171	0	Stop	succesful_stop	1950
608.005	0.5171	1834	Stop	Failed_stop	2000
610.5237	0.517	2040	Go	correct	n/a
616.0114	0.5171	2364	Go	correct	n/a
619.0138	0.5171	2176	Go	correct	n/a
624.0178	0.5171	0	Stop	succesful_stop	2050
628.021	0.5171	2174	Stop	Failed_stop	2100
634.543	0.517	2107	Stop	Failed_stop	2150
640.0307	0.5171	1980	Go	correct	n/a
644.0339	0.5171	0	Stop	succesful_stop	2200
646.5526	0.5171	2161	Go	correct	n/a
650.5558	0.5171	0	Stop	succesful_stop	2250
655.5432	0.517	2326	Go	correct	n/a
659.5464	0.5171	2116	Go	correct	n/a
